#timestamp [ns],w_RS_S_x [rad s^-1],w_RS_S_y [rad s^-1],w_RS_S_z [rad s^-1],a_RS_S_x [m s^-2],a_RS_S_y [m s^-2],a_RS_S_z [m s^-2]
1743277696716280064,0.00639178184792399,-0.012783563695848,0.00106529693584889,0.172106698155403,9.782182993754326,-0.4920238189055167
1743277696721280000,0.00106529693584889,-0.00852237548679113,0.0,0.172106698155403,9.794355733774577,-0.48593747735126613
1743277696726279936,0.0,-0.00852237548679113,-0.003195890923962,0.172106698155403,9.806527893366635,-0.47985142600975417
1743277696731280128,-0.00213059387169778,-0.00426118774339557,-0.00106529693584889,0.172106698155403,9.814391599893787,-0.478074163198471
1743277696736280064,0.00106529693584889,-0.00532648479565978,0.0,0.172106698155403,9.82047777205429,-0.478074163198471
1743277696741280000,-0.00106529693584889,-0.00852237548679113,-0.00532648479565978,0.172106698155403,9.826564234433292,-0.478074163198471
1743277696746289920,0.00106529693584889,0.0,-0.00532648479565978,0.172106698155403,9.82229585658431,-0.478074163198471
1743277696751290112,-0.00106529693584889,-0.003195890923962,-0.00745707890018821,0.172106698155403,9.810130870489605,-0.478074163198471
1743277696756290048,0.0,-0.00852237548679113,-0.00106529693584889,0.172106698155403,9.797966464453363,-0.478074163198471
1743277696761289984,-0.00106529693584889,-0.00532648479565978,-0.00532648479565978,0.172106698155403,9.79095935821533,-0.478074163198471
1743277696766289920,0.0,-0.00639178184792399,-0.00426118774339557,0.172106698155403,9.79095935821533,-0.478074163198471
1743277696771290112,-0.00106529693584889,-0.00532648479565978,-0.00639178184792399,0.172106698155403,9.79095935821533,-0.478074163198471
1743277696776300032,0.00106529693584889,-0.00426118774339557,-0.00532648479565978,0.172106698155403,9.79095935821533,-0.4798026702696667
1743277696781299968,-0.00106529693584889,-0.00639178184792399,-0.003195890923962,0.172106698155403,9.79095935821533,-0.4858890118239173
1743277696786299904,0.003195890923962,-0.00106529693584889,0.0,0.172106698155403,9.79095935821533,-0.49197506316542927
1743277696791300096,-0.00106529693584889,-0.00532648479565978,-0.00426118774339557,0.17297096413375382,9.79095935821533,-0.49806141648897234
1743277696796300032,0.00106529693584889,-0.00106529693584889,-0.003195890923962,0.1790571030968146,9.79095935821533,-0.5041475507095416
1743277696801309952,0.003195890923962,-0.00745707890018821,-0.003195890923962,0.18515572138729952,9.79095935821533,-0.5102461642478109
1743277696806309888,0.00213059387169778,-0.00852237548679113,0.00106529693584889,0.19121748231432908,9.79095935821533,-0.5162957315163232
1743277696811310080,0.00213059387169778,-0.003195890923962,0.003195890923962,0.18513114550272414,9.79095935821533,-0.5041230578931133
1743277696816310016,0.00426118774339557,-0.003195890923962,-0.00532648479565978,0.17904509890363166,9.79095935821533,-0.4919509646949283
1743277696821309952,0.0,-0.00532648479565978,-0.003195890923962,0.1729587620920267,9.79095935821533,-0.47977829107171843
1743277696826309888,-0.00106529693584889,-0.003195890923962,-0.00745707890018821,0.17734076025062026,9.79095935821533,-0.478074163198471
1743277696831320064,-0.00106529693584889,-0.00532648479565978,-0.00426118774339557,0.18343937854110517,9.79095935821533,-0.478074163198471
1743277696836320000,0.003195890923962,-0.00532648479565978,0.00106529693584889,0.18952551750416596,9.79095935821533,-0.478074163198471
1743277696841319936,0.003195890923962,-0.00745707890018821,-0.00213059387169778,0.18684746230149543,9.79095935821533,-0.4824563755515696
1743277696846319872,-0.00106529693584889,-0.00745707890018821,-0.00426118774339557,0.18076141570240295,9.79095935821533,-0.4885424268930816
1743277696851320064,-0.00213059387169778,-0.00852237548679113,0.00106529693584889,0.174675078890798,9.79095935821533,-0.49462876844733217
1743277696856320000,-0.00213059387169778,-0.00426118774339557,-0.00426118774339557,0.172106698155403,9.79095935821533,-0.4936794291939528
1743277696861329920,-0.00426118774339557,-0.00532648479565978,-0.003195890923962,0.172106698155403,9.79095935821533,-0.4875808061512522
1743277696866329856,0.00213059387169778,-0.00426118774339557,-0.00213059387169778,0.172106698155403,9.79095935821533,-0.4814946624457
1743277696871330048,0.0,-0.003195890923962,-0.00213059387169778,0.172106698155403,9.793625264896287,-0.478074163198471
1743277696876329984,0.00213059387169778,-0.003195890923962,-0.00213059387169778,0.172106698155403,9.799711344692316,-0.478074163198471
1743277696881329920,0.0,-0.00532648479565978,-0.003195890923962,0.172106698155403,9.805797714702441,-0.478074163198471
1743277696886329856,0.00213059387169778,-0.00426118774339557,-0.00745707890018821,0.172106698155403,9.81008243560791,-0.479875541004983
1743277696891340032,-0.003195890923962,-0.003195890923962,-0.003195890923962,0.172106698155403,9.81008243560791,-0.4859741640476836
1743277696896339968,0.00213059387169778,-0.003195890923962,-0.00639178184792399,0.172106698155403,9.81008243560791,-0.49206030775323584
1743277696901339904,0.003195890923962,-0.00852237548679113,-0.00532648479565978,0.172106698155403,9.809132855087544,-0.49624757510333106
1743277696906339840,0.0,-0.00639178184792399,-0.00532648479565978,0.172106698155403,9.803046775291513,-0.4901615237618191
1743277696911340032,0.00106529693584889,-0.00958767253905535,-0.00213059387169778,0.172106698155403,9.79696040528139,-0.48407518220756857
1743277696916340224,0.0,-0.00745707890018821,-0.00532648479565978,0.172106698155403,9.79095935821533,-0.4781594870385088
1743277696921349888,-0.00426118774339557,-0.00852237548679113,-0.00745707890018821,0.172106698155403,9.79095935821533,-0.4842578198640664
1743277696926350080,0.00106529693584889,-0.00852237548679113,0.0,0.172106698155403,9.79095935821533,-0.49034425378676166
1743277696931350016,-0.00106529693584889,-0.00106529693584889,-0.00426118774339557,0.172106698155403,9.79095935821533,-0.4964303974923139
1743277696936350208,0.003195890923962,-0.00426118774339557,-0.00213059387169778,0.172106698155403,9.796278982585234,-0.4918775516852543
1743277696941349888,0.003195890923962,-0.00426118774339557,-0.00213059387169778,0.172106698155403,9.802365062381263,-0.4857915003437424
1743277696946350080,-0.00106529693584889,-0.00532648479565978,-0.00745707890018821,0.172106698155403,9.808451432391388,-0.4797051587894918
1743277696951360000,0.00213059387169778,-0.00213059387169778,0.0,0.17657400715632782,9.81008243560791,-0.48254147568044925
1743277696956360192,0.00106529693584889,-0.00639178184792399,-0.003195890923962,0.18266043633630544,9.81008243560791,-0.48862790960314445
1743277696961359872,0.00106529693584889,-0.003195890923962,-0.00213059387169778,0.18874657529936623,9.81008243560791,-0.49471405330869667
1743277696966360064,-0.00213059387169778,-0.00426118774339557,-0.003195890923962,0.18762639268497566,9.81008243560791,-0.49359386982142817
1743277696971360000,-0.00213059387169778,-0.00213059387169778,-0.00745707890018821,0.18154034608588318,9.81008243560791,-0.48750781847991626
1743277696976370176,0.00106529693584889,-0.00639178184792399,-0.00213059387169778,0.17544182034875433,9.81008243560791,-0.4814092879906438
1743277696981369856,-0.00106529693584889,-0.00852237548679113,-0.003195890923962,0.172106698155403,9.807331496196982,-0.4808250897478102
1743277696986370048,-0.00106529693584889,-0.00213059387169778,-0.00106529693584889,0.172106698155403,9.801245126186856,-0.48691143130206077
1743277696991369984,0.00213059387169778,-0.003195890923962,-0.00958767253905535,0.172106698155403,9.795159046390827,-0.49299748264357274
1743277696996370176,0.00213059387169778,-0.00426118774339557,0.00106529693584889,0.172106698155403,9.79095935821533,-0.4953104495375322
1743277697001369856,-0.003195890923962,-0.00532648479565978,-0.003195890923962,0.172106698155403,9.79095935821533,-0.48922430583198
1743277697006380032,0.0,-0.00106529693584889,-0.00532648479565978,0.172106698155403,9.79095935821533,-0.48312568278927936
1743277697011379968,0.00213059387169778,-0.00958767253905535,-0.00106529693584889,0.17314130576237285,9.79095935821533,-0.47910877161163634
1743277697016380160,0.00213059387169778,-0.00745707890018821,-0.00213059387169778,0.1792276425739778,9.79095935821533,-0.4851951131658869
1743277697021379840,0.0,-0.00852237548679113,-0.003195890923962,0.18531368917307028,9.79095935821533,-0.4912811645073989
1743277697026380032,-0.00213059387169778,-0.00213059387169778,-0.003195890923962,0.19105931390966766,9.79095935821533,-0.4970267937211494
1743277697031379968,0.0,-0.00532648479565978,-0.00426118774339557,0.18497317494660687,9.79095935821533,-0.49094065001559717
1743277697036390144,0.00213059387169778,-0.003195890923962,-0.00106529693584889,0.17887455665612195,9.79095935821533,-0.4848420269728966
1743277697041389824,0.00106529693584889,-0.00532648479565978,-0.00532648479565978,0.1727884176930612,9.79095935821533,-0.4787558832673443
1743277697046390016,0.0,-0.00106529693584889,-0.00213059387169778,0.1775113257752065,9.79095935821533,-0.4834787950297131
1743277697051389952,0.0,-0.00426118774339557,-0.00426118774339557,0.183597372374299,9.79095935821533,-0.48956484637122505
1743277697056390144,0.00213059387169778,-0.00958767253905535,-0.00213059387169778,0.18968370918590394,9.79095935821533,-0.4956511879254756
1743277697061389824,-0.00426118774339557,-0.00213059387169778,-0.00745707890018821,0.1866895177928012,9.795499536427094,-0.497197151184082
1743277697066400000,0.00426118774339557,-0.00745707890018821,-0.00532648479565978,0.1805908995023163,9.801598187983089,-0.497197151184082
1743277697071399936,0.003195890923962,-0.00426118774339557,-0.003195890923962,0.1745047605392555,9.807684360143591,-0.497197151184082
1743277697076400128,0.00213059387169778,-0.00745707890018821,-0.00213059387169778,0.172106698155403,9.81008243560791,-0.5008854591310782
1743277697081399808,0.00106529693584889,-0.00639178184792399,-0.00426118774339557,0.172106698155403,9.81008243560791,-0.5069715009877512
1743277697086400000,0.00213059387169778,-0.003195890923962,-0.00213059387169778,0.172106698155403,9.81008243560791,-0.5130578330567106
1743277697091399936,0.0,-0.00639178184792399,-0.00532648479565978,0.172106698155403,9.81008243560791,-0.5106724881656561
1743277697096410112,0.003195890923962,-0.00213059387169778,-0.00213059387169778,0.172106698155403,9.81008243560791,-0.4984752515846863
1743277697101409792,-0.00106529693584889,-0.003195890923962,-0.003195890923962,0.172106698155403,9.81008243560791,-0.48630297365856473
1743277697106409984,0.00213059387169778,-0.00426118774339557,-0.00426118774339557,0.1740786921776639,9.808110430829215,-0.478074163198471
1743277697111409920,0.00213059387169778,-0.003195890923962,-0.00106529693584889,0.18016473877675637,9.802024351033184,-0.478074163198471
1743277697116410112,0.00106529693584889,-0.0106529695913196,-0.00426118774339557,0.18625107558836135,9.79593798102306,-0.478074163198471
1743277697121420032,0.00213059387169778,-0.00532648479565978,-0.00106529693584889,0.191229671239853,9.79095935821533,-0.478074163198471
1743277697126419968,-0.00106529693584889,-0.00745707890018821,-0.00106529693584889,0.191229671239853,9.79095935821533,-0.478074163198471
1743277697131419904,-0.00213059387169778,-0.00745707890018821,-0.00532648479565978,0.191229671239853,9.79095935821533,-0.478074163198471
1743277697136420096,-0.00106529693584889,-0.00213059387169778,-0.00106529693584889,0.191229671239853,9.790703679597224,-0.47832984062119155
1743277697141419776,0.0,-0.00426118774339557,-0.00426118774339557,0.191229671239853,9.784617599801194,-0.4844158919627035
1743277697146419968,0.00106529693584889,-0.003195890923962,0.0,0.191229671239853,9.778531229791069,-0.49050223351695404
1743277697151429888,0.00532648479565978,-0.003195890923962,-0.00426118774339557,0.191229671239853,9.77243296100303,-0.4966004737934879
1743277697156430080,0.003195890923962,-0.00532648479565978,-0.00639178184792399,0.18576777960994637,9.77729820224508,-0.49173525529811507
1743277697161429760,0.00106529693584889,-0.00213059387169778,-0.00426118774339557,0.17971251795997956,9.783353496924065,-0.4856799889297173
1743277697166429952,-0.00213059387169778,0.0,-0.003195890923962,0.17365696756547747,9.78940908034916,-0.4796244338165592
1743277697171430144,-0.003195890923962,-0.00532648479565978,-0.00213059387169778,0.17663784088944512,9.79095935821533,-0.4826053094633076
1743277697176430080,-0.00213059387169778,-0.003195890923962,-0.00213059387169778,0.18272786167234564,9.79095935821533,-0.4886953349917244
1743277697181519872,0.0,-0.00426118774339557,-0.00106529693584889,0.18892765441919337,9.79095935821533,-0.4948951325696258
1743277697186520064,0.003195890923962,0.0,-0.00639178184792399,0.191229671239853,9.794745201090691,-0.49341132600883886
1743277697191520000,-0.00106529693584889,-0.003195890923962,-0.00213059387169778,0.191229671239853,9.800831280886722,-0.4873252746673269
1743277697196520192,0.00532648479565978,-0.00639178184792399,0.0,0.191229671239853,9.806917650896848,-0.4812389331130763
1743277697201519872,0.00106529693584889,-0.00852237548679113,-0.00213059387169778,0.18830834775493716,9.807161096188349,-0.478074163198471
1743277697206530048,0.00213059387169778,-0.00852237548679113,-0.003195890923962,0.18220972946445224,9.801062444632354,-0.478074163198471
1743277697211529984,0.00213059387169778,-0.00639178184792399,-0.00426118774339557,0.17612359050139148,9.794976272471851,-0.478074163198471
1743277697216530176,-0.00213059387169778,0.00106529693584889,-0.00532648479565978,0.17417620358185518,9.79095935821533,-0.478074163198471
1743277697221529856,0.003195890923962,-0.00852237548679113,-0.00213059387169778,0.18026225018094766,9.79095935821533,-0.478074163198471
1743277697226530048,0.00213059387169778,-0.012783563695848,-0.00106529693584889,0.1863485869925526,9.79095935821533,-0.478074163198471
1743277697231539968,-0.00106529693584889,-0.00532648479565978,-0.00426118774339557,0.191229671239853,9.792176534603731,-0.47929133389615286
1743277697236540160,0.0,-0.00958767253905535,-0.00213059387169778,0.191229671239853,9.798262996982732,-0.48537776781884806
1743277697241539840,-0.00106529693584889,-0.00532648479565978,-0.00213059387169778,0.191229671239853,9.804349169143235,-0.49146391152440033
1743277697246540032,0.0,-0.00639178184792399,-0.00639178184792399,0.1908764826121721,9.809729245053727,-0.497197151184082
1743277697251539968,0.00106529693584889,-0.00639178184792399,-0.00426118774339557,0.18479043601307965,9.803643165257698,-0.497197151184082
1743277697256540160,0.00213059387169778,-0.00532648479565978,-0.00532648479565978,0.17870409920147468,9.797556795247573,-0.497197151184082
1743277697261549824,0.00426118774339557,-0.00852237548679113,0.0,0.1726058636768583,9.791458526459532,-0.497197151184082
1743277697266550016,-0.00213059387169778,-0.00532648479565978,-0.00426118774339557,0.172106698155403,9.79095935821533,-0.497197151184082
1743277697271549952,0.003195890923962,-0.003195890923962,-0.00639178184792399,0.172106698155403,9.79095935821533,-0.497197151184082
1743277697276550144,0.00213059387169778,-0.00639178184792399,-0.003195890923962,0.172106698155403,9.79095935821533,-0.497197151184082
1743277697281549824,-0.00106529693584889,-0.00532648479565978,-0.00532648479565978,0.172106698155403,9.79095935821533,-0.497197151184082
1743277697286550016,-0.003195890923962,-0.00213059387169778,-0.00745707890018821,0.172106698155403,9.79095935821533,-0.497197151184082
1743277697291559936,0.00213059387169778,-0.00532648479565978,-0.00426118774339557,0.172106698155403,9.79095935821533,-0.497197151184082
1743277697296560128,0.0,-0.003195890923962,-0.00532648479565978,0.172106698155403,9.794842481743418,-0.49331404581093385
1743277697301559808,0.00213059387169778,-0.00532648479565978,-0.00426118774339557,0.172106698155403,9.80092865390392,-0.48722790210538164
1743277697306560000,0.00106529693584889,-0.00745707890018821,-0.00426118774339557,0.172106698155403,9.80701511628292,-0.48114146818268644
1743277697311559936,-0.00213059387169778,-0.00532648479565978,-0.00532648479565978,0.172106698155403,9.81008243560791,-0.478074163198471
1743277697316560128,0.0,-0.00639178184792399,0.0,0.172106698155403,9.81008243560791,-0.478074163198471
1743277697321569792,0.0,-0.00532648479565978,0.00213059387169778,0.172106698155403,9.81008243560791,-0.478074163198471
1743277697326569984,0.00213059387169778,-0.003195890923962,-0.00213059387169778,0.172106698155403,9.81008243560791,-0.48024089150497656
1743277697331569920,0.0,-0.00213059387169778,-0.00532648479565978,0.172106698155403,9.81008243560791,-0.48632694284648853
1743277697336570112,-0.00213059387169778,-0.003195890923962,-0.00213059387169778,0.172106698155403,9.81008243560791,-0.4924132844007391
1743277697341569792,0.00106529693584889,-0.003195890923962,-0.00213059387169778,0.172106698155403,9.81008243560791,-0.49589411630038516
1743277697346579968,-0.00213059387169778,-0.00426118774339557,-0.00106529693584889,0.172106698155403,9.81008243560791,-0.48979160347533385
1743277697351579904,-0.00426118774339557,0.0,-0.003195890923962,0.172106698155403,9.81008243560791,-0.48370157794691704
1743277697356580096,0.0,-0.0106529695913196,-0.00213059387169778,0.172106698155403,9.809619834339736,-0.4785367623038246
1743277697361579776,0.003195890923962,-0.00745707890018821,-0.003195890923962,0.172106698155403,9.803533754543707,-0.48462281364533655
1743277697366579968,0.003195890923962,-0.00639178184792399,-0.00106529693584889,0.172106698155403,9.797447384533582,-0.49070915519958713
1743277697371579904,0.00213059387169778,-0.003195890923962,-0.00426118774339557,0.172106698155403,9.791361304737551,-0.4967952065410991
1743277697376590080,0.0,-0.00852237548679113,-0.00426118774339557,0.172106698155403,9.79095935821533,-0.497197151184082
1743277697381590016,0.003195890923962,-0.00958767253905535,-0.00532648479565978,0.172106698155403,9.79095935821533,-0.497197151184082
1743277697386589952,0.00426118774339557,-0.00745707890018821,-0.00213059387169778,0.172106698155403,9.79095935821533,-0.497197151184082
1743277697391590144,0.0,-0.00426118774339557,-0.00106529693584889,0.172106698155403,9.795795085611136,-0.4923614463969657
1743277697396590080,0.003195890923962,-0.00213059387169778,-0.00213059387169778,0.172106698155403,9.801885047130321,-0.4862715133504478
1743277697401590016,0.0,-0.00106529693584889,-0.003195890923962,0.172106698155403,9.8079752990487,-0.48018128990609266
1743277697406599936,-0.00106529693584889,-0.00639178184792399,-0.00106529693584889,0.172106698155403,9.806089899705377,-0.478074163198471
1743277697411600128,-0.00106529693584889,-0.00745707890018821,-0.0106529695913196,0.172106698155403,9.800003437326374,-0.478074163198471
1743277697416600064,0.00213059387169778,-0.003195890923962,-0.00426118774339557,0.172106698155403,9.793917265165874,-0.478074163198471
1743277697421600000,0.00106529693584889,-0.003195890923962,-0.00213059387169778,0.172106698155403,9.794089861537861,-0.4843351356924459
1743277697426599936,0.0,-0.003195890923962,-0.00213059387169778,0.172106698155403,9.800179823057046,-0.4965149922945932
1743277697431600128,-0.00106529693584889,-0.00106529693584889,-0.003195890923962,0.172106698155403,9.806270074975425,-0.5086954296919627
1743277697436610048,-0.00106529693584889,-0.003195890923962,-0.00426118774339557,0.172106698155403,9.81008243560791,-0.5117433885887974
1743277697441609984,-0.00106529693584889,-0.003195890923962,-0.00532648479565978,0.172106698155403,9.81008243560791,-0.4995705302288421
1743277697446609920,0.003195890923962,-0.00532648479565978,-0.003195890923962,0.172106698155403,9.81008243560791,-0.48739825230272055
1743277697451610112,0.003195890923962,-0.00958767253905535,-0.00106529693584889,0.17353106116662545,9.81008243560791,-0.47664980129715245
1743277697456610048,0.003195890923962,0.0,-0.00213059387169778,0.17961710776571793,9.81008243560791,-0.47056375944047946
1743277697461609984,-0.00213059387169778,-0.00958767253905535,0.0,0.18570344457732288,9.81008243560791,-0.46447742737152015
1743277697466619904,0.00106529693584889,-0.00745707890018821,-0.00426118774339557,0.1906572888564141,9.81008243560791,-0.4600959697820598
1743277697471620096,0.0,-0.00639178184792399,-0.00639178184792399,0.18456697767149252,9.81008243560791,-0.47227659215190293
1743277697476620032,0.00426118774339557,-0.00852237548679113,-0.00426118774339557,0.178476956888592,9.81008243560791,-0.484456633717704
1743277697481619968,-0.00213059387169778,-0.00213059387169778,-0.00532648479565978,0.17238664570367043,9.81008243560791,-0.4966372560875471
1743277697486619904,0.00106529693584889,-0.00958767253905535,0.0,0.172106698155403,9.81008243560791,-0.49139086492259565
1743277697491630080,0.0,-0.00426118774339557,-0.00532648479565978,0.172106698155403,9.81008243560791,-0.4852923344333232
1743277697496630016,0.00426118774339557,-0.00426118774339557,0.00213059387169778,0.172106698155403,9.81008243560791,-0.47920628309181124
1743277697501629952,-0.00106529693584889,-0.003195890923962,-0.00532648479565978,0.172106698155403,9.805124955666091,-0.478074163198471
1743277697506629888,-0.00106529693584889,0.0,-0.00106529693584889,0.172106698155403,9.799034901664577,-0.478074163198471
1743277697511630080,0.00106529693584889,-0.00532648479565978,-0.00745707890018821,0.172106698155403,9.792944557259457,-0.478074163198471
1743277697516630016,0.00426118774339557,-0.00745707890018821,-0.00106529693584889,0.172106698155403,9.79095935821533,-0.478074163198471
1743277697521639936,-0.00106529693584889,-0.00639178184792399,-0.00213059387169778,0.172106698155403,9.79095935821533,-0.478074163198471
1743277697526639872,0.00106529693584889,-0.00426118774339557,-0.003195890923962,0.172106698155403,9.79095935821533,-0.478074163198471
1743277697531640064,0.0,-0.00532648479565978,-0.00745707890018821,0.172106698155403,9.79095935821533,-0.478074163198471
1743277697536640000,-0.003195890923962,-0.00426118774339557,-0.003195890923962,0.172106698155403,9.79095935821533,-0.478074163198471
1743277697541639936,0.0,-0.003195890923962,-0.00639178184792399,0.172106698155403,9.79095935821533,-0.478074163198471
1743277697546639872,-0.00106529693584889,-0.00745707890018821,0.00106529693584889,0.1744938027682227,9.79095935821533,-0.4804612696713901
1743277697551650048,-0.00213059387169778,-0.00532648479565978,-0.00745707890018821,0.18059631083802732,9.79095935821533,-0.4865637824964414
1743277697556649984,0.00213059387169778,-0.00426118774339557,-0.00213059387169778,0.18668633162092785,9.79095935821533,-0.49265380802485825
1743277697561649920,0.0,-0.00213059387169778,-0.00426118774339557,0.18968370918590394,9.79095935821533,-0.4941052270761839
1743277697566649856,-0.003195890923962,-0.00213059387169778,0.0,0.18359766258681146,9.79095935821533,-0.4819331338779989
1743277697571650048,0.0,-0.00639178184792399,-0.00213059387169778,0.1775113257752065,9.79095935821533,-0.469760460254789
1743277697576649984,-0.003195890923962,-0.00213059387169778,-0.00532648479565978,0.17278856210076804,9.79095935821533,-0.4596330684292194
1743277697581660160,0.00213059387169778,-0.00532648479565978,-0.003195890923962,0.17889107017057262,9.79095935821533,-0.4657355717437773
1743277697586659840,0.00426118774339557,-0.00213059387169778,-0.003195890923962,0.18498109095347318,9.79095935821533,-0.4718255877811615
1743277697591660032,0.0,-0.003195890923962,-0.00639178184792399,0.19107140213839474,9.79095935821533,-0.47791589422034053
1743277697596659968,0.00106529693584889,-0.00852237548679113,-0.00213059387169778,0.18530179046005885,9.79095935821533,-0.48400204859743734
1743277697601659904,0.00106529693584889,-0.00426118774339557,-0.00639178184792399,0.1792154536484539,9.79095935821533,-0.4900883901516879
1743277697606659840,0.00532648479565978,-0.00639178184792399,-0.00106529693584889,0.17312940704936142,9.79095935821533,-0.4961744414931999
1743277697611670016,0.0,-0.00213059387169778,-0.00532648479565978,0.172106698155403,9.79095935821533,-0.497197151184082
1743277697616669952,0.0,-0.00639178184792399,0.0,0.172106698155403,9.79095935821533,-0.497197151184082
1743277697621669888,0.00426118774339557,-0.00426118774339557,-0.00106529693584889,0.172106698155403,9.79095935821533,-0.497197151184082
1743277697626669824,0.00213059387169778,-0.00745707890018821,0.0,0.172106698155403,9.79095935821533,-0.497197151184082
1743277697631670016,-0.00213059387169778,-0.00213059387169778,-0.00532648479565978,0.172106698155403,9.79095935821533,-0.497197151184082
1743277697636679936,0.003195890923962,-0.00639178184792399,-0.00213059387169778,0.172106698155403,9.79095935821533,-0.497197151184082
1743277697641680128,0.0,-0.00639178184792399,-0.00213059387169778,0.172106698155403,9.794321070347396,-0.4938354547691779
1743277697646680064,-0.00106529693584889,-0.00426118774339557,-0.00106529693584889,0.172106698155403,9.800411414752515,-0.4877451388385138
1743277697651680000,-0.00106529693584889,-0.00213059387169778,-0.00426118774339557,0.172106698155403,9.806501468754032,-0.48165511331009697
1743277697656680192,-0.00213059387169778,-0.003195890923962,0.00213059387169778,0.17461123171138057,9.807577888390709,-0.4805786987060519
1743277697661679872,0.00213059387169778,-0.00532648479565978,-0.00106529693584889,0.18068952973272134,9.801499557214695,-0.4866570014637743
1743277697666690048,-0.00213059387169778,-0.00532648479565978,0.00106529693584889,0.18678029100402244,9.795408762720742,-0.4927477674811686
1743277697671689984,-0.00639178184792399,0.0,-0.00852237548679113,0.18959865216720975,9.79095935821533,-0.4939351130387955
1743277697676690176,0.00213059387169778,-0.003195890923962,-0.00532648479565978,0.18351222298723213,9.79095935821533,-0.48176225467884026
1743277697681720064,0.0,-0.00532648479565978,0.0,0.17738951669264946,9.79095935821533,-0.4695168420896749
1743277697686720000,0.00106529693584889,-0.00639178184792399,-0.00106529693584889,0.172106698155403,9.79095935821533,-0.458951205015182
1743277697691719936,-0.00213059387169778,-0.00958767253905535,-0.003195890923962,0.172106698155403,9.79095935821533,-0.458951205015182
1743277697696719872,0.00106529693584889,-0.00426118774339557,-0.00106529693584889,0.172106698155403,9.79095935821533,-0.458951205015182
1743277697701720064,-0.00106529693584889,-0.00426118774339557,-0.00106529693584889,0.172106698155403,9.79095935821533,-0.458951205015182
1743277697706720000,0.0,-0.00639178184792399,-0.00106529693584889,0.172106698155403,9.79698871786339,-0.4649805270774667
1743277697711729920,0.00213059387169778,-0.00639178184792399,-0.003195890923962,0.172106698155403,9.803090968816317,-0.4710827399902298
1743277697716730112,0.0,-0.00213059387169778,-0.00532648479565978,0.172106698155403,9.809181313221439,-0.47717304642940883
1743277697721730048,-0.003195890923962,-0.00106529693584889,0.0,0.172106698155403,9.804896890150113,-0.4728886500662869
1743277697726729984,0.00106529693584889,-0.00852237548679113,-0.00106529693584889,0.172106698155403,9.798810520139988,-0.4668023179973276
1743277697731729920,0.00106529693584889,-0.00532648479565978,-0.00106529693584889,0.172106698155403,9.792724440343958,-0.4607162761406546
1743277697736730112,-0.00106529693584889,-0.003195890923962,-0.003195890923962,0.172106698155403,9.7952807116782,-0.4675938647986902
1743277697741740032,0.00213059387169778,-0.00532648479565978,-0.00532648479565978,0.172106698155403,9.801379073015697,-0.4797905209458263
1743277697746740224,-0.00213059387169778,-0.00639178184792399,-0.00426118774339557,0.172106698155403,9.8074655353947,-0.49196337930578155
1743277697751739904,0.00213059387169778,-0.00745707890018821,-0.00852237548679113,0.172106698155403,9.806613216310703,-0.4937279481066687
1743277697756740096,-0.00213059387169778,-0.0106529695913196,0.0,0.172106698155403,9.800526846300578,-0.4876416065524181
1743277697761740032,0.00106529693584889,-0.00426118774339557,0.0,0.172106698155403,9.794440766504547,-0.48155555521090615
1743277697766750208,-0.00106529693584889,-0.00532648479565978,-0.00639178184792399,0.172106698155403,9.793578217925676,-0.478074163198471
1743277697771749888,0.00106529693584889,-0.00532648479565978,-0.00106529693584889,0.172106698155403,9.799668271927192,-0.478074163198471
1743277697776750080,0.00213059387169778,-0.00426118774339557,-0.00213059387169778,0.172106698155403,9.805758616332312,-0.478074163198471
1743277697781750016,0.003195890923962,-0.00745707890018821,-0.00639178184792399,0.172106698155403,9.808317353479282,-0.4798392370747323
1743277697786749952,0.00106529693584889,-0.003195890923962,-0.003195890923962,0.172106698155403,9.802230983469157,-0.4859255786289829
1743277697791749888,0.0,-0.00745707890018821,0.0,0.172106698155403,9.796144903673127,-0.49201162997049486
1743277697796760064,0.00213059387169778,-0.00639178184792399,-0.003195890923962,0.172106698155403,9.79187238561588,-0.4962841280522491
1743277697801760000,0.00106529693584889,-0.00852237548679113,-0.00106529693584889,0.172106698155403,9.797958557776383,-0.49019798434669687
1743277697806760192,0.0,-0.00426118774339557,-0.00106529693584889,0.172106698155403,9.804045020155383,-0.48411155042400167
1743277697811759872,0.00106529693584889,-0.00106529693584889,-0.00745707890018821,0.172106698155403,9.81008243560791,-0.478074163198471
1743277697816760064,0.0,-0.003195890923962,-0.00639178184792399,0.172106698155403,9.81008243560791,-0.478074163198471
1743277697821760000,-0.00213059387169778,-0.00532648479565978,-0.00106529693584889,0.172106698155403,9.81008243560791,-0.478074163198471
1743277697826770176,0.00213059387169778,-0.00532648479565978,-0.00106529693584889,0.172106698155403,9.81008243560791,-0.478074163198471
1743277697831769856,-0.00106529693584889,-0.00213059387169778,-0.00213059387169778,0.172106698155403,9.81008243560791,-0.478074163198471
1743277697836770048,0.0,-0.00213059387169778,-0.00639178184792399,0.172106698155403,9.81008243560791,-0.478074163198471
1743277697841769984,0.00213059387169778,-0.00852237548679113,-0.00213059387169778,0.172106698155403,9.81008243560791,-0.478074163198471
1743277697846770176,-0.00213059387169778,-0.00745707890018821,-0.00213059387169778,0.172106698155403,9.81008243560791,-0.4824929423566352
1743277697851769856,0.00213059387169778,-0.003195890923962,-0.00106529693584889,0.172106698155403,9.81008243560791,-0.48857899369814717
1743277697856780032,0.00213059387169778,-0.00426118774339557,-0.00639178184792399,0.172106698155403,9.81008243560791,-0.4946775241874196
1743277697861779968,0.0,-0.00213059387169778,-0.00426118774339557,0.172106698155403,9.806515994588722,-0.4936307268392324
1743277697866780160,0.00213059387169778,-0.00958767253905535,-0.00426118774339557,0.172106698155403,9.800429624578596,-0.48754438528498184
1743277697871779840,0.00106529693584889,-0.012783563695848,-0.003195890923962,0.172106698155403,9.794343544782565,-0.4814583339434699
1743277697876780032,0.00213059387169778,-0.00958767253905535,-0.00639178184792399,0.172106698155403,9.79095935821533,-0.4753719555914079
1743277697881789952,0.00213059387169778,-0.00532648479565978,-0.00106529693584889,0.172106698155403,9.79095935821533,-0.4692736322698294
1743277697886790144,0.00213059387169778,-0.00852237548679113,0.0,0.172106698155403,9.79095935821533,-0.46318720783256934
1743277697891789824,0.00213059387169778,0.0,-0.00426118774339557,0.172106698155403,9.79280947307393,-0.4608013083405499
1743277697896790016,0.00213059387169778,-0.012783563695848,-0.00106529693584889,0.172106698155403,9.798895843084056,-0.46688764040950925
1743277697901789952,0.00213059387169778,-0.00532648479565978,-0.00213059387169778,0.172106698155403,9.804981922880085,-0.47297368226618225
1743277697906790144,0.003195890923962,-0.00852237548679113,-0.003195890923962,0.17309256502190995,9.809096563363896,-0.478074163198471
1743277697911799808,0.0,-0.00213059387169778,-0.003195890923962,0.17919089309547803,9.8029982020264,-0.478074163198471
1743277697916800000,-0.00106529693584889,-0.00532648479565978,-0.00852237548679113,0.18527732227545565,9.796911739647397,-0.478074163198471
1743277697921799936,0.00426118774339557,-0.00532648479565978,-0.00213059387169778,0.19109588327160246,9.79109314691334,-0.4782079512709729
1743277697926800128,0.00213059387169778,-0.00639178184792399,-0.00106529693584889,0.1850095464599975,9.797179516923466,-0.48429429282522346
1743277697931799808,-0.00426118774339557,-0.00639178184792399,-0.00213059387169778,0.17892349986090503,9.803265596719495,-0.4903803441667354
1743277697936800000,-0.00106529693584889,-0.00426118774339557,-0.00639178184792399,0.17283716304930008,9.80935196672962,-0.496466685720986
1743277697941809920,-0.003195890923962,-0.00532648479565978,-0.00426118774339557,0.172106698155403,9.81008243560791,-0.4918292949074192
1743277697946810112,0.003195890923962,-0.00532648479565978,-0.00426118774339557,0.172106698155403,9.81008243560791,-0.485742860984724
1743277697951809792,0.0,-0.00745707890018821,-0.00426118774339557,0.172106698155403,9.81008243560791,-0.4796567172791718
1743277697956809984,0.0,-0.00639178184792399,-0.00958767253905535,0.17661050613648718,9.81008243560791,-0.4735703587268813
1743277697961810176,-0.00106529693584889,-0.00213059387169778,0.0,0.18269684294809213,9.81008243560791,-0.46748402665792194
1743277697966810112,-0.00106529693584889,-0.00213059387169778,-0.003195890923962,0.1887828895471846,9.81008243560791,-0.46139798480124894
1743277697971820032,-0.00213059387169778,-0.003195890923962,-0.00426118774339557,0.1875778717752498,9.81008243560791,-0.4626030016341999
1743277697976819968,-0.003195890923962,-0.00426118774339557,-0.00639178184792399,0.181491732812189,9.81008243560791,-0.4686891358547692
1743277697981820160,0.0,-0.00106529693584889,-0.00745707890018821,0.1754053036322114,9.81008243560791,-0.4747755602920292
1743277697986820096,-0.00213059387169778,-0.00213059387169778,-0.00639178184792399,0.172106698155403,9.81008243560791,-0.478074163198471
1743277697991820032,-0.00106529693584889,-0.00426118774339557,-0.00213059387169778,0.172106698155403,9.81008243560791,-0.478074163198471
1743277697996829952,-0.00213059387169778,0.0,-0.00426118774339557,0.172106698155403,9.81008243560791,-0.478074163198471
1743277698001830144,0.0,-0.003195890923962,0.00106529693584889,0.17405434388431917,9.81008243560791,-0.48002181044504777
1743277698006830080,0.00426118774339557,-0.00958767253905535,-0.00106529693584889,0.18014048284737993,9.81008243560791,-0.4861079541506
1743277698011830016,0.0,-0.00639178184792399,-0.00852237548679113,0.18622691202735756,9.81008243560791,-0.4921943880732952
1743277698016829952,-0.00106529693584889,-0.00426118774339557,-0.00426118774339557,0.19014630793078752,9.808999066389534,-0.4961137870308292
1743277698021830144,0.00106529693584889,-0.00639178184792399,-0.00532648479565978,0.18405997111918254,9.802912696379408,-0.4900274454765786
1743277698026840064,0.00106529693584889,-0.003195890923962,-0.00532648479565978,0.17796173559456616,9.796814427591368,-0.4839292052000448
1743277698031840000,0.0,-0.00852237548679113,-0.00106529693584889,0.172106698155403,9.79095935821533,-0.478074163198471
1743277698036839936,0.00106529693584889,-0.00426118774339557,0.0,0.172106698155403,9.79095935821533,-0.478074163198471
1743277698041840128,0.00426118774339557,-0.00532648479565978,-0.00106529693584889,0.172106698155403,9.79095935821533,-0.478074163198471
1743277698046840064,0.0,-0.00639178184792399,-0.003195890923962,0.172106698155403,9.79095935821533,-0.478074163198471
1743277698051840000,0.0,-0.00639178184792399,-0.003195890923962,0.17756355966441426,9.79095935821533,-0.47261730594160045
1743277698056849920,0.0,-0.00426118774339557,-0.00639178184792399,0.18366568466515149,9.79095935821533,-0.4665151856958114
1743277698061850112,0.003195890923962,-0.00532648479565978,-0.00639178184792399,0.18975590336383616,9.79095935821533,-0.46042497174279723
1743277698066850048,0.0,-0.00532648479565978,-0.00852237548679113,0.191229671239853,9.795572671489058,-0.46356448953047313
1743277698071849984,-0.00106529693584889,-0.00639178184792399,-0.003195890923962,0.191229671239853,9.801659133868059,-0.4696509139677331
1743277698076849920,0.00532648479565978,-0.00532648479565978,-0.00213059387169778,0.191229671239853,9.807745306028561,-0.4757370481883025
1743277698081850112,0.0,-0.00639178184792399,-0.00426118774339557,0.18748041579120125,9.806333159708577,-0.4743249106713451
1743277698086860032,0.00213059387169778,-0.00532648479565978,-0.00426118774339557,0.18138218026658487,9.800234890920537,-0.4682266798986461
1743277698091859968,-0.00106529693584889,-0.00532648479565978,-0.00532648479565978,0.1752958434549799,9.794148520910413,-0.46214034782968677
1743277698096859904,0.00213059387169778,-0.00745707890018821,-0.00213059387169778,0.172106698155403,9.79095935821533,-0.4618499957302251
1743277698101860096,0.0,-0.00426118774339557,-0.00106529693584889,0.172106698155403,9.79095935821533,-0.46794030216940413
1743277698106860032,0.0,-0.00106529693584889,-0.003195890923962,0.172106698155403,9.79095935821533,-0.4740303182067884
1743277698111859968,0.003195890923962,-0.00852237548679113,-0.00532648479565978,0.172106698155403,9.79095935821533,-0.48011929236749656
1743277698116869888,-0.00213059387169778,-0.00532648479565978,-0.003195890923962,0.172106698155403,9.79095935821533,-0.4862175326440304
1743277698121870080,0.00106529693584889,-0.00852237548679113,-0.00532648479565978,0.172106698155403,9.79095935821533,-0.492303874198281
1743277698126870016,0.00213059387169778,-0.00639178184792399,-0.00426118774339557,0.172106698155403,9.79095935821533,-0.497197151184082
1743277698131869952,0.00106529693584889,-0.00639178184792399,-0.00106529693584889,0.172106698155403,9.79095935821533,-0.497197151184082
1743277698136869888,0.0,-0.003195890923962,-0.00213059387169778,0.172106698155403,9.79095935821533,-0.497197151184082
1743277698141880064,0.003195890923962,-0.003195890923962,-0.003195890923962,0.172106698155403,9.79095935821533,-0.4968561512162084
1743277698146880000,0.00213059387169778,-0.003195890923962,-0.00852237548679113,0.172106698155403,9.79095935821533,-0.49077009987469644
1743277698151879936,-0.00106529693584889,-0.00532648479565978,0.00106529693584889,0.172106698155403,9.79095935821533,-0.48468375832044586
1743277698156879872,0.00106529693584889,-0.00532648479565978,-0.00426118774339557,0.172106698155403,9.79095935821533,-0.4785977069789339
1743277698161880064,0.00106529693584889,-0.003195890923962,-0.003195890923962,0.172106698155403,9.796515183780096,-0.478074163198471
1743277698166880000,0.0,-0.00426118774339557,-0.00639178184792399,0.172106698155403,9.802593607085537,-0.478074163198471
1743277698171889920,0.00106529693584889,-0.00426118774339557,-0.00426118774339557,0.172106698155403,9.808684493897827,-0.478074163198471
1743277698176889856,0.00213059387169778,-0.00426118774339557,-0.00532648479565978,0.172106698155403,9.805396058394315,-0.478074163198471
1743277698181910016,0.0,-0.003195890923962,-0.00532648479565978,0.172106698155403,9.79928531040017,-0.478074163198471
1743277698186909952,0.00106529693584889,-0.00426118774339557,-0.00639178184792399,0.172106698155403,9.793199230604142,-0.478074163198471
1743277698191910144,-0.00213059387169778,-0.00532648479565978,-0.00426118774339557,0.172106698155403,9.794805914212436,-0.478074163198471
1743277698196919808,0.0,-0.00639178184792399,-0.00426118774339557,0.172106698155403,9.80090427554993,-0.478074163198471
1743277698201920000,0.0,-0.00532648479565978,-0.00532648479565978,0.172106698155403,9.806990737928933,-0.478074163198471
1743277698206919936,0.00106529693584889,-0.00639178184792399,-0.00213059387169778,0.172106698155403,9.81008243560791,-0.478074163198471
1743277698211920128,0.0,0.00213059387169778,-0.00852237548679113,0.172106698155403,9.81008243560791,-0.478074163198471
1743277698216919808,0.00106529693584889,-0.00426118774339557,-0.003195890923962,0.172106698155403,9.81008243560791,-0.478074163198471
1743277698221920000,-0.00213059387169778,-0.003195890923962,-0.00532648479565978,0.172106698155403,9.81008243560791,-0.47593178358775895
1743277698226929920,0.00213059387169778,-0.00532648479565978,0.0,0.172106698155403,9.81008243560791,-0.46983346026618045
1743277698231930112,-0.003195890923962,-0.00426118774339557,-0.00639178184792399,0.172106698155403,9.81008243560791,-0.4637470358289204
1743277698236929792,-0.00532648479565978,-0.00532648479565978,-0.00532648479565978,0.172106698155403,9.81008243560791,-0.4615317746761009
1743277698241929984,-0.00106529693584889,-0.003195890923962,-0.003195890923962,0.172106698155403,9.81008243560791,-0.4737044482993108
1743277698246929920,0.00213059387169778,-0.003195890923962,0.0,0.172106698155403,9.81008243560791,-0.48587654149749576
1743277698251940096,0.00106529693584889,-0.00532648479565978,-0.003195890923962,0.17254491904923874,9.809644212323755,-0.497197151184082
1743277698256939776,0.00213059387169778,-0.00532648479565978,-0.00852237548679113,0.17863096564833122,9.803558132527726,-0.497197151184082
1743277698261939968,0.00213059387169778,-0.00532648479565978,-0.003195890923962,0.1847173024599362,9.7974717625176,-0.497197151184082
1743277698266940160,0.00213059387169778,-0.00639178184792399,-0.00106529693584889,0.19080363927154115,9.791385392507475,-0.497197151184082
1743277698271940096,0.0,-0.00106529693584889,0.0,0.191229671239853,9.79095935821533,-0.48587695012580395
1743277698276940032,-0.003195890923962,-0.003195890923962,-0.00745707890018821,0.191229671239853,9.79095935821533,-0.4737040917658487
1743277698281949952,-0.00106529693584889,-0.003195890923962,0.0,0.191229671239853,9.79095935821533,-0.46150743561871255
1743277698286950144,0.00213059387169778,-0.00745707890018821,0.0,0.1864214303331836,9.79576762534902,-0.4637594421751342
1743277698291950080,-0.00106529693584889,-0.003195890923962,-0.00426118774339557,0.1803353837340911,9.801853705145051,-0.4698454840318072
1743277698296950016,-0.00106529693584889,-0.00532648479565978,-0.00532648479565978,0.17424904692248616,9.807940075155177,-0.47593181610076657
1743277698301949952,-0.00106529693584889,-0.00745707890018821,0.00106529693584889,0.172106698155403,9.81008243560791,-0.478074163198471
1743277698306950144,0.0,-0.00532648479565978,-0.00532648479565978,0.172106698155403,9.81008243560791,-0.478074163198471
1743277698311960064,0.00106529693584889,-0.00639178184792399,-0.00213059387169778,0.172106698155403,9.81008243560791,-0.478074163198471
1743277698316960000,-0.003195890923962,0.00213059387169778,-0.00426118774339557,0.172106698155403,9.81008243560791,-0.478074163198471
1743277698321959936,0.0,-0.003195890923962,0.0,0.172106698155403,9.81008243560791,-0.478074163198471
1743277698326960128,0.00106529693584889,-0.003195890923962,0.00213059387169778,0.172106698155403,9.81008243560791,-0.478074163198471
1743277698331960064,0.0,-0.00426118774339557,-0.00213059387169778,0.17434630210266064,9.807842819444513,-0.478074163198471
1743277698336960000,0.00106529693584889,-0.00106529693584889,-0.00213059387169778,0.18043273128263826,9.801756357065512,-0.478074163198471
1743277698341969920,0.00745707890018821,-0.00639178184792399,-0.003195890923962,0.18653105935620634,9.795657995728016,-0.478074163198471
1743277698346970112,-0.00213059387169778,-0.00639178184792399,-0.00532648479565978,0.18984187500520228,9.792347162019851,-0.47946196051453177
1743277698351970048,0.00106529693584889,-0.00426118774339557,-0.00426118774339557,0.1837558284061098,9.798433241815882,-0.48554801185604374
1743277698356969984,0.00426118774339557,-0.00639178184792399,-0.003195890923962,0.17766949159450485,9.804519611826006,-0.4916343534102943
1743277698361969920,-0.00106529693584889,-0.00639178184792399,-0.00745707890018821,0.172106698155403,9.809558837908003,-0.497197151184082
1743277698366970112,0.00213059387169778,-0.003195890923962,-0.003195890923962,0.172106698155403,9.803468493502884,-0.497197151184082
1743277698371980032,0.0,-0.003195890923962,-0.003195890923962,0.172106698155403,9.797366242549955,-0.497197151184082
1743277698376979968,-0.00106529693584889,-0.0106529695913196,-0.003195890923962,0.172106698155403,9.791275898144836,-0.497197151184082
1743277698381979904,0.00426118774339557,-0.00852237548679113,-0.00213059387169778,0.1778764131158988,9.796729104647302,-0.497197151184082
1743277698386980096,0.00106529693584889,-0.00958767253905535,-0.003195890923962,0.18396274992750375,9.802815474657427,-0.497197151184082
1743277698391980032,0.00426118774339557,-0.00426118774339557,-0.00852237548679113,0.19004879652659623,9.808901554453456,-0.497197151184082
1743277698396989952,0.0,-0.00639178184792399,-0.00426118774339557,0.191229671239853,9.805164683127833,-0.49227942169619
1743277698401989888,-0.003195890923962,0.0,-0.003195890923962,0.191229671239853,9.79907851096733,-0.4861932779906378
1743277698406990080,-0.00213059387169778,-0.00106529693584889,-0.00852237548679113,0.191229671239853,9.79299204858833,-0.4801068440679426
1743277698411990016,-0.00106529693584889,-0.00639178184792399,-0.00745707890018821,0.18717627307812848,9.79095935821533,-0.4821275645187179
1743277698416989952,-0.00532648479565978,-0.00426118774339557,-0.00213059387169778,0.18108993626652353,9.79095935821533,-0.4882139060729685
1743277698421989888,0.00213059387169778,-0.00213059387169778,-0.00639178184792399,0.17500388966743105,9.79095935821533,-0.49429995741448046
1743277698427000064,0.0,-0.00532648479565978,-0.00426118774339557,0.17530808096506983,9.79095935821533,-0.497197151184082
1743277698432000000,0.00106529693584889,-0.00745707890018821,-0.00745707890018821,0.18139421992813062,9.79095935821533,-0.497197151184082
1743277698436999936,0.00106529693584889,-0.00745707890018821,-0.00426118774339557,0.18748064910810824,9.79095935821533,-0.497197151184082
1743277698441999872,-0.00213059387169778,-0.00745707890018821,-0.00639178184792399,0.191229671239853,9.79095935821533,-0.4948600680000089
1743277698447000064,0.003195890923962,-0.00745707890018821,-0.00426118774339557,0.191229671239853,9.79095935821533,-0.48877372644575834
1743277698452000000,0.00213059387169778,0.0,-0.00639178184792399,0.191229671239853,9.79095935821533,-0.48268767510424637
1743277698457009920,0.00426118774339557,-0.00532648479565978,-0.00213059387169778,0.18974463127638047,9.79095935821533,-0.478074163198471
1743277698462009856,0.00213059387169778,-0.00532648479565978,-0.00745707890018821,0.1836584923133197,9.79095935821533,-0.478074163198471
1743277698467010048,0.00106529693584889,-0.00106529693584889,-0.00213059387169778,0.1775720631333421,9.79095935821533,-0.478074163198471
1743277698472009984,0.00106529693584889,-0.0106529695913196,-0.00426118774339557,0.172106698155403,9.79095935821533,-0.4793164841784907
1743277698477009920,-0.00213059387169778,-0.00213059387169778,-0.00532648479565978,0.172106698155403,9.79095935821533,-0.4914969215758601
1743277698482009856,0.0,-0.00532648479565978,-0.00532648479565978,0.172106698155403,9.79095935821533,-0.5036767781780074
1743277698487020032,0.003195890923962,-0.0117182666435838,-0.003195890923962,0.172106698155403,9.79095935821533,-0.515881608974704
1743277698492019968,-0.00213059387169778,-0.00213059387169778,-0.00426118774339557,0.172106698155403,9.79682641540844,-0.5045860589856785
1743277698497019904,0.00532648479565978,-0.0106529695913196,-0.003195890923962,0.172106698155403,9.802912877787442,-0.4924132006257233
1743277698502019840,0.00106529693584889,-0.00639178184792399,-0.00532648479565978,0.172106698155403,9.808999049947944,-0.4802409226996017
1743277698507020032,0.0,-0.00639178184792399,-0.00532648479565978,0.172106698155403,9.805079434816161,-0.478074163198471
1743277698512029952,0.003195890923962,-0.00958767253905535,-0.00213059387169778,0.172106698155403,9.798981166028122,-0.478074163198471
1743277698517029888,0.00106529693584889,-0.00532648479565978,0.003195890923962,0.172106698155403,9.792894796017997,-0.478074163198471
1743277698522030080,0.0,-0.00639178184792399,-0.00426118774339557,0.17625767071697174,9.79095935821533,-0.478074163198471
1743277698527030016,0.00106529693584889,-0.00745707890018821,-0.00213059387169778,0.18234380968003253,9.79095935821533,-0.478074163198471
1743277698532030208,0.00426118774339557,-0.00426118774339557,0.00106529693584889,0.18843023886001015,9.79095935821533,-0.478074163198471
1743277698537029888,-0.00106529693584889,-0.00745707890018821,-0.00745707890018821,0.1879430145360848,9.79424603284649,-0.4846474766060074
1743277698542040064,0.0,-0.00958767253905535,-0.00106529693584889,0.18184448879895596,9.800344591848624,-0.49684452808026514
1743277698547040000,0.00213059387169778,-0.00639178184792399,-0.00532648479565978,0.17575844219986347,9.806430671644653,-0.50901662127845
1743277698552040192,0.00639178184792399,-0.00958767253905535,-0.00426118774339557,0.17454132787077742,9.80764779261261,-0.5114508499366223
1743277698557039872,0.00106529693584889,-0.00532648479565978,-0.00106529693584889,0.18062746683383818,9.801561620452107,-0.49927857201050063
1743277698562040064,-0.00213059387169778,0.0,-0.00532648479565978,0.1867138960138158,9.795475158073106,-0.4871057136505454
1743277698567040000,0.00426118774339557,-0.0138488598167896,-0.00426118774339557,0.191229671239853,9.79095935821533,-0.478074163198471
1743277698572050176,0.0,-0.00639178184792399,0.0,0.191229671239853,9.79095935821533,-0.478074163198471
1743277698577049856,-0.003195890923962,-0.003195890923962,-0.00532648479565978,0.191229671239853,9.79095935821533,-0.478074163198471
1743277698582050048,0.0,-0.00532648479565978,-0.003195890923962,0.1905113952714798,9.79095935821533,-0.478074163198471
1743277698587049984,-0.00213059387169778,-0.00532648479565978,-0.00532648479565978,0.18442534867238733,9.79095935821533,-0.478074163198471
1743277698592050176,0.00213059387169778,-0.00426118774339557,-0.00106529693584889,0.17833901186078238,9.79095935821533,-0.478074163198471
1743277698597049856,0.00106529693584889,-0.00532648479565978,-0.00106529693584889,0.1722529652616899,9.79095935821533,-0.478074163198471
1743277698602060032,-0.003195890923962,-0.00426118774339557,-0.00639178184792399,0.172106698155403,9.79095935821533,-0.48402651680110687
1743277698607059968,0.0,-0.00639178184792399,0.00106529693584889,0.172106698155403,9.79095935821533,-0.4901126605066591
1743277698612060160,-0.00213059387169778,-0.00532648479565978,-0.003195890923962,0.172106698155403,9.79095935821533,-0.4961990944293543
1743277698617059840,0.00213059387169778,-0.003195890923962,-0.00426118774339557,0.17719470392409736,9.79095935821533,-0.49210914145066975
1743277698622060032,0.0,-0.00852237548679113,-0.00852237548679113,0.1832810407357023,9.79095935821533,-0.48602279989641917
1743277698627059968,0.00213059387169778,-0.00213059387169778,0.0,0.1893670873347948,9.79095935821533,-0.4799367485549072
1743277698632070144,0.00106529693584889,-0.00532648479565978,-0.00958767253905535,0.18699366512165,9.79095935821533,-0.48231017261748965
1743277698637069824,-0.003195890923962,-0.00426118774339557,-0.003195890923962,0.1809075261585892,9.79095935821533,-0.4883963163230419
1743277698642070016,-0.00213059387169778,-0.00852237548679113,-0.00532648479565978,0.1748210969786116,9.79095935821533,-0.4944827502457371
1743277698647069952,0.0,-0.00213059387169778,-0.00426118774339557,0.17547838712532607,9.794331065576461,-0.497197151184082
1743277698652070144,-0.00106529693584889,-0.00639178184792399,-0.003195890923962,0.18156472393693102,9.800417435586587,-0.497197151184082
1743277698657079808,-0.003195890923962,-0.003195890923962,-0.003195890923962,0.1876629594615474,9.806515704374625,-0.497197151184082
1743277698662080000,0.00213059387169778,-0.00532648479565978,-0.00639178184792399,0.1887164158308431,9.81008243560791,-0.49468389381667244
1743277698667079936,0.00106529693584889,-0.00639178184792399,-0.003195890923962,0.1826457547870344,9.81008243560791,-0.4886132280424331
1743277698672080128,0.0,-0.00639178184792399,-0.00532648479565978,0.1765748042643719,9.81008243560791,-0.48254227278911443
1743277698677079808,-0.00213059387169778,-0.00426118774339557,0.00106529693584889,0.172106698155403,9.80847476125035,-0.47968183003959997
1743277698682120192,-0.003195890923962,-0.00958767253905535,-0.00213059387169778,0.172106698155403,9.80233562903958,-0.4858209335478128
1743277698687129856,0.00532648479565978,-0.0117182666435838,-0.00106529693584889,0.172106698155403,9.796233378086654,-0.4919231559706168
1743277698692130048,0.00106529693584889,-0.00958767253905535,-0.00426118774339557,0.172106698155403,9.79095935821533,-0.497197151184082
1743277698697129984,0.00213059387169778,-0.00639178184792399,0.0,0.172106698155403,9.79095935821533,-0.497197151184082
1743277698702130176,-0.00106529693584889,-0.003195890923962,-0.00639178184792399,0.172106698155403,9.79095935821533,-0.497197151184082
1743277698707129856,0.00106529693584889,-0.0106529695913196,-0.00639178184792399,0.172106698155403,9.79095935821533,-0.497197151184082
1743277698712130048,0.00426118774339557,-0.00958767253905535,-0.00532648479565978,0.172106698155403,9.79095935821533,-0.49115947374140834
1743277698717139968,-0.00106529693584889,-0.00532648479565978,-0.00532648479565978,0.172106698155403,9.79095935821533,-0.48506114091585073
1743277698722140160,0.0,-0.003195890923962,-0.00106529693584889,0.172106698155403,9.79095935821533,-0.47897470699315553
1743277698727139840,-0.00106529693584889,-0.00639178184792399,-0.00745707890018821,0.172106698155403,9.796144903673127,-0.478074163198471
1743277698732140032,0.00213059387169778,-0.00639178184792399,0.0,0.172106698155403,9.802231273683253,-0.478074163198471
1743277698737139968,-0.00106529693584889,-0.00426118774339557,-0.003195890923962,0.172106698155403,9.808317353479282,-0.478074163198471
1743277698742140160,-0.00213059387169778,-0.00852237548679113,-0.00213059387169778,0.176427962466141,9.805761147726413,-0.478074163198471
1743277698747149824,0.00213059387169778,-0.00426118774339557,-0.00426118774339557,0.1825261979907574,9.799662878938372,-0.478074163198471
1743277698752150016,0.00106529693584889,-0.00639178184792399,-0.00639178184792399,0.18861253480236237,9.793576508928249,-0.478074163198471
1743277698757149952,0.00532648479565978,-0.00532648479565978,-0.00532648479565978,0.18776070843285925,9.79095935821533,-0.478074163198471
1743277698762150144,-0.00213059387169778,-0.00639178184792399,-0.00426118774339557,0.18167427925288165,9.79095935821533,-0.478074163198471
1743277698767149824,0.00213059387169778,-0.00639178184792399,-0.00213059387169778,0.17558814028982087,9.79095935821533,-0.478074163198471
1743277698772150016,0.00106529693584889,-0.00745707890018821,-0.003195890923962,0.172106698155403,9.79095935821533,-0.478074163198471
1743277698777159936,-0.00213059387169778,-0.003195890923962,-0.00106529693584889,0.172106698155403,9.79095935821533,-0.478074163198471
1743277698782160128,0.00106529693584889,0.0,-0.00106529693584889,0.172106698155403,9.79095935821533,-0.478074163198471
1743277698787159808,0.00213059387169778,-0.00426118774339557,-0.00426118774339557,0.172106698155403,9.79272417691296,-0.4798389736449668
1743277698792160000,0.00213059387169778,-0.00532648479565978,-0.00532648479565978,0.172106698155403,9.798810639291963,-0.485925407567662
1743277698797159936,0.00106529693584889,-0.00639178184792399,-0.00958767253905535,0.172106698155403,9.804896811452465,-0.4920115512732142
1743277698802170112,-0.00106529693584889,-0.00852237548679113,-0.00639178184792399,0.172106698155403,9.81008243560791,-0.497197151184082
1743277698807169792,0.00106529693584889,-0.00745707890018821,-0.003195890923962,0.172106698155403,9.81008243560791,-0.497197151184082
1743277698812169984,-0.00106529693584889,-0.00532648479565978,-0.00745707890018821,0.172106698155403,9.81008243560791,-0.497197151184082
1743277698817169920,0.003195890923962,-0.00426118774339557,-0.00106529693584889,0.17215516438051534,9.81008243560791,-0.49714868492120334
1743277698822170112,-0.00426118774339557,-0.00852237548679113,-0.00532648479565978,0.17824159356049296,9.81008243560791,-0.49106225099850814
1743277698827169792,0.00106529693584889,-0.003195890923962,0.00106529693584889,0.18432773252355375,9.81008243560791,-0.4849761072929559
1743277698832179968,0.00532648479565978,-0.00745707890018821,0.0,0.19042635081403866,9.81008243560791,-0.47887748425025534
1743277698837179904,-0.00213059387169778,-0.00639178184792399,-0.00213059387169778,0.18594356352613198,9.804796299060596,-0.48336027503127654
1743277698842180096,0.0,-0.00852237548679113,-0.00213059387169778,0.17985334482744728,9.798706047142218,-0.4894504984756317
1743277698847179776,-0.00106529693584889,-0.00213059387169778,-0.003195890923962,0.17376341652637364,9.792616085623033,-0.49554043152214955
1743277698852179968,-0.00106529693584889,-0.00745707890018821,-0.00745707890018821,0.172106698155403,9.79095935821533,-0.49276640606211997
1743277698857180160,0.00213059387169778,-0.00213059387169778,-0.00426118774339557,0.172106698155403,9.79095935821533,-0.4866799721394247
1743277698862190080,-0.00106529693584889,-0.00426118774339557,-0.00426118774339557,0.172106698155403,9.79095935821533,-0.4805816393138671
1743277698867189760,0.0,-0.003195890923962,-0.003195890923962,0.172106698155403,9.79095935821533,-0.478074163198471
1743277698872189952,0.00426118774339557,-0.00852237548679113,-0.00106529693584889,0.172106698155403,9.79095935821533,-0.478074163198471
1743277698877190144,0.0,-0.00213059387169778,-0.003195890923962,0.172106698155403,9.79095935821533,-0.478074163198471
1743277698882190080,0.0,-0.00426118774339557,-0.00639178184792399,0.172106698155403,9.79095935821533,-0.478074163198471
1743277698887190016,0.00106529693584889,-0.00532648479565978,0.0,0.172106698155403,9.79095935821533,-0.478074163198471
1743277698892199936,0.00106529693584889,-0.00852237548679113,-0.00213059387169778,0.172106698155403,9.79095935821533,-0.478074163198471
1743277698897200128,0.00213059387169778,-0.00852237548679113,-0.00106529693584889,0.172106698155403,9.792821952280034,-0.4799367485549072
1743277698902200064,0.003195890923962,-0.00426118774339557,-0.00958767253905535,0.172106698155403,9.798908032076065,-0.48602279989641917
1743277698907200000,0.0,-0.00106529693584889,-0.00106529693584889,0.172106698155403,9.80499440208619,-0.49210914145066975
1743277698912199936,0.0,-0.00426118774339557,-0.00213059387169778,0.172106698155403,9.809084374186902,-0.497197151184082
1743277698917210112,-0.003195890923962,0.00106529693584889,-0.00532648479565978,0.172106698155403,9.802985722630906,-0.497197151184082
1743277698922210048,0.0,0.0,-0.00532648479565978,0.172106698155403,9.796899550470403,-0.497197151184082
1743277698927209984,0.00213059387169778,-0.00532648479565978,-0.00532648479565978,0.172106698155403,9.791105626119446,-0.497197151184082
1743277698932209920,-0.00106529693584889,-0.00426118774339557,-0.00213059387169778,0.172106698155403,9.797191705915475,-0.497197151184082
1743277698937210112,0.00106529693584889,0.0,-0.00213059387169778,0.172106698155403,9.8032780759256,-0.497197151184082
1743277698942210048,-0.003195890923962,-0.00532648479565978,-0.00426118774339557,0.172106698155403,9.80936415572163,-0.497197151184082
1743277698947219968,-0.00106529693584889,-0.00745707890018821,0.0,0.172106698155403,9.804698643173877,-0.4918133839211322
1743277698952219904,-0.00213059387169778,-0.00532648479565978,-0.00426118774339557,0.172106698155403,9.798608589172362,-0.4857233583927154
1743277698957220096,0.00106529693584889,-0.00213059387169778,-0.00426118774339557,0.172106698155403,9.792518244767242,-0.4796330424620513
1743277698962220032,0.00426118774339557,-0.00213059387169778,-0.00213059387169778,0.172106698155403,9.795487568746896,-0.478074163198471
1743277698967219968,0.00106529693584889,-0.00639178184792399,-0.00213059387169778,0.172106698155403,9.80157393875702,-0.478074163198471
1743277698972219904,0.00213059387169778,-0.003195890923962,0.0,0.172106698155403,9.807660018553051,-0.478074163198471
1743277698977230080,-0.00106529693584889,-0.00639178184792399,-0.00426118774339557,0.17578287584102079,9.81008243560791,-0.478074163198471
1743277698982230016,0.00213059387169778,-0.00958767253905535,-0.00106529693584889,0.18186901480408157,9.81008243560791,-0.478074163198471
1743277698987229952,0.00532648479565978,-0.0117182666435838,0.00106529693584889,0.1879554439840592,9.81008243560791,-0.478074163198471
1743277698992229888,0.00426118774339557,-0.00958767253905535,-0.00213059387169778,0.191229671239853,9.807270551236934,-0.478074163198471
1743277698997230080,0.00106529693584889,-0.00852237548679113,-0.00532648479565978,0.191229671239853,9.801184181226809,-0.478074163198471
1743277699002230016,0.00106529693584889,-0.00852237548679113,0.0,0.191229671239853,9.79509810143078,-0.478074163198471
1743277699007239936,-0.003195890923962,-0.00213059387169778,-0.00426118774339557,0.191229671239853,9.792919203744864,-0.478074163198471
1743277699012239872,0.0,-0.00639178184792399,-0.00639178184792399,0.191229671239853,9.799005375905367,-0.478074163198471
1743277699017240064,-0.003195890923962,-0.003195890923962,-0.00745707890018821,0.191229671239853,9.805091838284369,-0.478074163198471
1743277699022240000,0.00213059387169778,-0.00745707890018821,-0.003195890923962,0.19013411900526359,9.808986877397524,-0.4769786118175669
1743277699027239936,0.00106529693584889,-0.00958767253905535,-0.003195890923962,0.18404778219365864,9.802900507387399,-0.47089227974860753
1743277699032239872,0.00426118774339557,-0.00639178184792399,-0.00532648479565978,0.17796173559456616,9.796814427591368,-0.46480623789193454
1743277699037250048,0.0,-0.00745707890018821,-0.00426118774339557,0.1723503417510637,9.79120300313997,-0.4594384922065034
1743277699042249984,0.00106529693584889,-0.00745707890018821,-0.003195890923962,0.17844027005213736,9.797292964659153,-0.4716183488086507
1743277699047249920,0.00106529693584889,-0.00426118774339557,-0.003195890923962,0.18453048875082204,9.803383216577533,-0.48379878620602007
1743277699052249856,0.00106529693584889,0.00213059387169778,-0.00639178184792399,0.1906204170518957,9.809473178096717,-0.4959786428081674
1743277699057250048,-0.00426118774339557,-0.00532648479565978,-0.00426118774339557,0.1857521171514066,9.804604851641608,-0.49171959282737066
1743277699062259968,0.00213059387169778,-0.00532648479565978,0.0,0.17965378907783852,9.798506490304112,-0.48562126000181305
1743277699067259904,-0.003195890923962,-0.00426118774339557,0.00106529693584889,0.1735673598978609,9.792420027925111,-0.47953482607911785
1743277699072259840,0.0,-0.00639178184792399,-0.00106529693584889,0.17673210517921378,9.795584790468876,-0.478074163198471
1743277699077260032,-0.00106529693584889,-0.00958767253905535,-0.00745707890018821,0.18281844199081873,9.801671160479001,-0.478074163198471
1743277699082259968,0.00106529693584889,-0.00532648479565978,-0.00532648479565978,0.1889044885899112,9.807757240275032,-0.478074163198471
1743277699087259904,-0.00213059387169778,-0.00958767253905535,-0.00106529693584889,0.18746845999760095,9.81008243560791,-0.478074163198471
1743277699092269824,0.00106529693584889,-0.00639178184792399,-0.00745707890018821,0.18137013192403287,9.81008243560791,-0.478074163198471
1743277699097270016,0.00213059387169778,-0.00426118774339557,-0.00852237548679113,0.17528370274405525,9.81008243560791,-0.478074163198471
1743277699102269952,0.003195890923962,-0.00745707890018821,-0.003195890923962,0.16919761019720897,9.81008243560791,-0.478074163198471
1743277699107269888,0.00106529693584889,-0.0106529695913196,-0.00532648479565978,0.16311127812824996,9.81008243560791,-0.478074163198471
1743277699112270080,0.00106529693584889,-0.00106529693584889,-0.00106529693584889,0.15702494605929096,9.81008243560791,-0.478074163198471
1743277699117270016,0.00213059387169778,-0.00426118774339557,-0.00532648479565978,0.15502991101781655,9.808036251806724,-0.478074163198471
1743277699122279936,-0.00106529693584889,-0.00426118774339557,-0.003195890923962,0.16113212393057935,9.801934000853796,-0.478074163198471
1743277699127279872,0.0,-0.00532648479565978,0.0,0.16722243036975803,9.795843656448676,-0.478074163198471
1743277699132280064,0.00213059387169778,-0.00852237548679113,-0.00213059387169778,0.172106698155403,9.792164617353803,-0.478074163198471
1743277699137280000,0.00213059387169778,-0.00639178184792399,-0.00106529693584889,0.172106698155403,9.798250697149832,-0.478074163198471
1743277699142280192,-0.00106529693584889,-0.00639178184792399,-0.00532648479565978,0.172106698155403,9.804337067159958,-0.478074163198471
1743277699147279872,0.00426118774339557,-0.003195890923962,-0.003195890923962,0.172106698155403,9.81008243560791,-0.4784148781243362
1743277699152290048,0.00213059387169778,-0.00532648479565978,-0.00639178184792399,0.172106698155403,9.81008243560791,-0.4845135011670368
1743277699157289984,0.003195890923962,-0.012783563695848,-0.00532648479565978,0.172106698155403,9.81008243560791,-0.490599644872589
1743277699162290176,-0.003195890923962,-0.00426118774339557,0.00213059387169778,0.172106698155403,9.81008243560791,-0.49668607879528426
1743277699167289856,-0.00106529693584889,-0.00532648479565978,-0.003195890923962,0.172106698155403,9.81008243560791,-0.4860613822660565
1743277699172290048,0.00213059387169778,-0.00213059387169778,0.0,0.172106698155403,9.81008243560791,-0.47390420653733023
1743277699177299968,0.00106529693584889,-0.00958767253905535,-0.00745707890018821,0.172106698155403,9.81008243560791,-0.4617232636807727
1743277699182320128,0.00106529693584889,-0.00426118774339557,-0.003195890923962,0.172106698155403,9.805359419741237,-0.4636741914395559
1743277699187320064,0.0,-0.00745707890018821,-0.00532648479565978,0.172106698155403,9.799273247580734,-0.4697603256601252
1743277699192320000,0.00426118774339557,-0.00958767253905535,-0.00745707890018821,0.172106698155403,9.793186785201733,-0.47584675009738525
1743277699197329920,0.00106529693584889,-0.00745707890018821,-0.00213059387169778,0.17597755264678136,9.794830233820663,-0.478074163198471
1743277699202330112,-0.003195890923962,-0.00213059387169778,-0.00639178184792399,0.1820638894583863,9.800916603830789,-0.478074163198471
1743277699207330048,0.0,0.0,-0.00106529693584889,0.1881499360574788,9.807002683626818,-0.478074163198471
1743277699212329984,0.00106529693584889,-0.0106529695913196,0.00106529693584889,0.18822302398138607,9.80707577194939,-0.4810808127998024
1743277699217329920,0.00106529693584889,-0.003195890923962,-0.00106529693584889,0.1821368850183253,9.80098959978889,-0.48716695650535463
1743277699222330112,0.0,-0.00106529693584889,-0.00639178184792399,0.1760504558383477,9.794903137409888,-0.4932533904280499
1743277699227340032,-0.00532648479565978,-0.00426118774339557,-0.00106529693584889,0.172106698155403,9.793113907660075,-0.49935168719781237
1743277699232340224,-0.00106529693584889,-0.00532648479565978,-0.00532648479565978,0.172106698155403,9.799200277670199,-0.5054380192667718
1743277699237339904,0.00213059387169778,-0.00532648479565978,-0.003195890923962,0.172106698155403,9.80528635746623,-0.5115240611234447
1743277699242340096,0.003195890923962,-0.00532648479565978,-0.003195890923962,0.172106698155403,9.81008243560791,-0.512449197135995
1743277699247340032,-0.00426118774339557,0.00213059387169778,-0.00426118774339557,0.172106698155403,9.81008243560791,-0.4941907849893041
1743277699252339968,0.00213059387169778,-0.00852237548679113,0.00106529693584889,0.172106698155403,9.81008243560791,-0.4759315021920888
1743277699257349888,-0.00106529693584889,-0.00213059387169778,-0.00532648479565978,0.17254491904923874,9.81008243560791,-0.4598276468028535
1743277699262350080,0.0,-0.00745707890018821,-0.00213059387169778,0.17863125586084372,9.81008243560791,-0.47200032042606344
1743277699267350016,0.0,-0.00532648479565978,-0.00532648479565978,0.1847173024599362,9.81008243560791,-0.4841724136242484
1743277699272349952,-0.00106529693584889,-0.00958767253905535,-0.00426118774339557,0.19080363927154115,9.81008243560791,-0.4963450872474583
1743277699277349888,-0.00426118774339557,-0.00532648479565978,-0.00426118774339557,0.1855659606238161,9.81008243560791,-0.4858697299520082
1743277699282360064,0.00106529693584889,-0.00639178184792399,-0.00745707890018821,0.17946345255401153,9.81008243560791,-0.47366471381239905
1743277699287360000,0.00426118774339557,-0.00213059387169778,-0.00532648479565978,0.17337343177111098,9.81008243560791,-0.46148467224659795
1743277699292360192,-0.00106529693584889,-0.00213059387169778,-0.00213059387169778,0.172106698155403,9.80526197948221,-0.46859206467956865
1743277699297359872,-0.003195890923962,-0.00426118774339557,-0.00106529693584889,0.172106698155403,9.79917589968618,-0.4807641578777536
1743277699302360064,-0.003195890923962,-0.00532648479565978,-0.00532648479565978,0.172106698155403,9.793089529676054,-0.4929368315009635
1743277699307360000,0.00106529693584889,0.0,0.0,0.17606264494885498,9.794915326586882,-0.4932412013080445
1743277699312370176,0.00106529693584889,-0.00426118774339557,-0.00532648479565978,0.1821612632393399,9.801013978142878,-0.48714257826534385
1743277699317369856,-0.00213059387169778,-0.00532648479565978,0.0,0.18824740220240066,9.807100150303379,-0.48105643455979163
1743277699322370048,0.00106529693584889,-0.00532648479565978,-0.003195890923962,0.191229671239853,9.806978305642799,-0.478074163198471
1743277699327369984,0.00106529693584889,-0.00958767253905535,-0.00213059387169778,0.191229671239853,9.80089222584677,-0.478074163198471
1743277699332369920,-0.00213059387169778,-0.00958767253905535,-0.00213059387169778,0.191229671239853,9.794805855836644,-0.478074163198471
1743277699337369856,0.00213059387169778,-0.00745707890018821,-0.00426118774339557,0.18899006729259535,9.79095935821533,-0.478074163198471
1743277699342380032,-0.00213059387169778,-0.00639178184792399,0.0,0.18289144900211043,9.79095935821533,-0.478074163198471
1743277699347379968,0.0,-0.00532648479565978,-0.00213059387169778,0.17680531003904965,9.79095935821533,-0.478074163198471
1743277699352380160,0.0,-0.00426118774339557,-0.00426118774339557,0.17349537953138575,9.792348047166012,-0.478074163198471
1743277699357379840,0.00426118774339557,-0.012783563695848,-0.00106529693584889,0.1795853078324594,9.798438008685196,-0.478074163198471
1743277699362380032,-0.00106529693584889,-0.00958767253905535,-0.003195890923962,0.18567552653114408,9.804528260603576,-0.478074163198471
1743277699367379968,0.00426118774339557,-0.00745707890018821,-0.00532648479565978,0.191229671239853,9.809546982475673,-0.47753871340413834
1743277699372390144,-0.00106529693584889,-0.00852237548679113,-0.00213059387169778,0.191229671239853,9.803448330919679,-0.4714400998658691
1743277699377389824,0.00532648479565978,-0.00958767253905535,-0.00106529693584889,0.191229671239853,9.797362158759176,-0.4653539656452998
1743277699382390016,-0.00532648479565978,-0.00639178184792399,-0.00532648479565978,0.191229671239853,9.791275696380174,-0.45926754120803975
1743277699387389952,0.003195890923962,-0.00426118774339557,-0.00213059387169778,0.191229671239853,9.79095935821533,-0.4704906349361736
1743277699392389888,-0.003195890923962,-0.003195890923962,-0.00213059387169778,0.191229671239853,9.79095935821533,-0.4826633085593835
1743277699397399808,0.003195890923962,-0.00639178184792399,-0.00213059387169778,0.191229671239853,9.79095935821533,-0.49485977960861627
1743277699402400000,0.00213059387169778,-0.00426118774339557,-0.00213059387169778,0.191229671239853,9.79095935821533,-0.49227942169619
1743277699407399936,-0.00106529693584889,-0.003195890923962,-0.003195890923962,0.191229671239853,9.79095935821533,-0.4861932779906378
1743277699412400128,-0.00106529693584889,-0.00532648479565978,-0.00426118774339557,0.191229671239853,9.79095935821533,-0.4801068440679426
1743277699417399808,-0.00106529693584889,-0.00958767253905535,-0.00106529693584889,0.18717627307812848,9.79095935821533,-0.4821275645187179
1743277699422400000,0.00213059387169778,-0.00106529693584889,0.0,0.18108993626652353,9.79095935821533,-0.4882139060729685
1743277699427409920,0.00106529693584889,-0.00106529693584889,-0.00106529693584889,0.17499170074190715,9.79095935821533,-0.4943121463495023
1743277699432410112,0.003195890923962,-0.003195890923962,-0.00213059387169778,0.172106698155403,9.79095935821533,-0.497197151184082
1743277699437410048,0.00426118774339557,-0.00639178184792399,-0.003195890923962,0.172106698155403,9.79095935821533,-0.497197151184082
1743277699442409984,0.0,-0.00213059387169778,-0.00532648479565978,0.172106698155403,9.79095935821533,-0.497197151184082
1743277699447410176,0.0,-0.00639178184792399,-0.003195890923962,0.172106698155403,9.793298233332182,-0.4948582870022759
1743277699452409856,0.003195890923962,-0.00426118774339557,-0.00532648479565978,0.172106698155403,9.799388194851367,-0.4887683539557581
1743277699457420032,0.00106529693584889,-0.00639178184792399,-0.00426118774339557,0.172106698155403,9.805490643535938,-0.48266593380223527
1743277699462419968,0.00213059387169778,-0.00852237548679113,-0.00213059387169778,0.172106698155403,9.808585221089398,-0.4795713707169899
1743277699467420160,0.0,-0.003195890923962,0.0,0.172106698155403,9.802498851079273,-0.4856577122712405
1743277699472420096,0.0,-0.00213059387169778,-0.003195890923962,0.172106698155403,9.796412771283244,-0.49174376361275246
1743277699477420032,-0.00213059387169778,-0.00639178184792399,-0.00532648479565978,0.172106698155403,9.79095935821533,-0.497197151184082
1743277699482419968,-0.00213059387169778,-0.00745707890018821,0.00106529693584889,0.172106698155403,9.79095935821533,-0.497197151184082
1743277699487430144,-0.003195890923962,-0.00745707890018821,-0.00426118774339557,0.172106698155403,9.79095935821533,-0.497197151184082
1743277699492430080,0.00106529693584889,-0.00426118774339557,-0.00426118774339557,0.172106698155403,9.79095935821533,-0.497197151184082
1743277699497430016,-0.00106529693584889,-0.00532648479565978,-0.00213059387169778,0.172106698155403,9.79095935821533,-0.49132992024748634
1743277699502429952,0.00532648479565978,-0.00426118774339557,-0.00532648479565978,0.172106698155403,9.79095935821533,-0.4852438689059744
1743277699507430144,0.00532648479565978,-0.00426118774339557,-0.00106529693584889,0.172106698155403,9.79095935821533,-0.4791575273517238
1743277699512440064,0.0,-0.00213059387169778,-0.00532648479565978,0.172106698155403,9.79095935821533,-0.478074163198471
1743277699517440000,0.0,-0.00532648479565978,-0.00213059387169778,0.172106698155403,9.79095935821533,-0.478074163198471
1743277699522439936,-0.00213059387169778,-0.00639178184792399,-0.00852237548679113,0.172106698155403,9.79095935821533,-0.478074163198471
1743277699527440128,-0.00106529693584889,-0.00639178184792399,-0.003195890923962,0.172106698155403,9.79095935821533,-0.4822250759988928
1743277699532440064,-0.00106529693584889,-0.00532648479565978,-0.003195890923962,0.172106698155403,9.79095935821533,-0.48831112734040477
1743277699537440000,0.0,-0.00426118774339557,-0.00426118774339557,0.172106698155403,9.79095935821533,-0.49439746889465536
1743277699542449920,0.00106529693584889,-0.00639178184792399,-0.00213059387169778,0.172106698155403,9.79095935821533,-0.493898543136907
1743277699547450112,0.00213059387169778,-0.00426118774339557,-0.003195890923962,0.172106698155403,9.79095935821533,-0.48781210921421175
1743277699552450048,0.0,-0.003195890923962,-0.00532648479565978,0.172106698155403,9.79095935821533,-0.48172596550865954
1743277699557449984,0.00426118774339557,-0.00745707890018821,-0.00213059387169778,0.172106698155403,9.79095935821533,-0.478074163198471
1743277699562449920,0.00213059387169778,-0.003195890923962,-0.00639178184792399,0.172106698155403,9.79095935821533,-0.478074163198471
1743277699567450112,0.00213059387169778,-0.00213059387169778,-0.00106529693584889,0.172106698155403,9.79095935821533,-0.478074163198471
1743277699572460032,0.0,-0.00745707890018821,-0.00852237548679113,0.172106698155403,9.79095935821533,-0.478074163198471
1743277699577459968,0.00213059387169778,-0.00852237548679113,-0.00106529693584889,0.172106698155403,9.79095935821533,-0.478074163198471
1743277699582459904,0.00106529693584889,-0.00532648479565978,-0.00639178184792399,0.172106698155403,9.79095935821533,-0.478074163198471
1743277699587460096,0.00213059387169778,-0.00852237548679113,-0.00639178184792399,0.172106698155403,9.79095935821533,-0.478074163198471
1743277699592460032,0.0,-0.00639178184792399,-0.00426118774339557,0.172106698155403,9.79095935821533,-0.478074163198471
1743277699597459968,0.00213059387169778,-0.003195890923962,-0.00213059387169778,0.172106698155403,9.79095935821533,-0.478074163198471
1743277699602469888,-0.003195890923962,-0.00213059387169778,-0.00639178184792399,0.172106698155403,9.79095935821533,-0.478074163198471
1743277699607470080,0.00106529693584889,-0.00958767253905535,-0.00532648479565978,0.1661421647282353,9.796923928824391,-0.478074163198471
1743277699612470016,0.00213059387169778,-0.00426118774339557,-0.00639178184792399,0.16005603050766629,9.803010100984894,-0.478074163198471
1743277699617469952,0.00106529693584889,-0.00532648479565978,-0.00213059387169778,0.1539696060704066,9.809096563363896,-0.478074163198471
1743277699622469888,0.00213059387169778,-0.00639178184792399,-0.003195890923962,0.15808393069211718,9.81008243560791,-0.478074163198471
1743277699627470080,0.003195890923962,-0.00426118774339557,-0.00213059387169778,0.16417026276107619,9.81008243560791,-0.478074163198471
1743277699632480000,0.0,-0.00958767253905535,0.00106529693584889,0.17026849353377482,9.81008243560791,-0.478074163198471
1743277699637479936,0.00426118774339557,-0.0106529695913196,-0.00426118774339557,0.1763548933841133,9.81008243560791,-0.478074163198471
1743277699642479872,0.00106529693584889,-0.00745707890018821,-0.00213059387169778,0.18244103234717407,9.81008243560791,-0.478074163198471
1743277699647480064,0.0,-0.00958767253905535,-0.00639178184792399,0.1885274615271517,9.81008243560791,-0.478074163198471
1743277699652480000,-0.00213059387169778,-0.00426118774339557,-0.00532648479565978,0.18784579334440601,9.80669853925477,-0.478074163198471
1743277699657489920,0.00213059387169778,-0.00106529693584889,-0.00532648479565978,0.18174726760727716,9.800599980252635,-0.478074163198471
1743277699662489856,-0.00106529693584889,-0.00426118774339557,-0.00745707890018821,0.17566122100818468,9.794513900456606,-0.478074163198471
1743277699667490048,-0.00213059387169778,-0.00426118774339557,-0.00213059387169778,0.172106698155403,9.793483180901072,-0.4805979740844725
1743277699672489984,0.00213059387169778,-0.00745707890018821,-0.00639178184792399,0.172106698155403,9.799550017850025,-0.4866647826688761
1743277699677489920,0.00106529693584889,-0.003195890923962,-0.00639178184792399,0.172106698155403,9.805617144095482,-0.4927318805484294
1743277699682490112,-0.00106529693584889,-0.00958767253905535,-0.003195890923962,0.172106698155403,9.81008243560791,-0.49559024325036627
1743277699687539968,0.0,-0.00426118774339557,-0.003195890923962,0.172106698155403,9.81008243560791,-0.489443247233745
1743277699692539904,0.00213059387169778,-0.00426118774339557,-0.00639178184792399,0.172106698155403,9.81008243560791,-0.483357195892233
1743277699697540096,-0.003195890923962,-0.00426118774339557,-0.00532648479565978,0.172106698155403,9.80927859842913,-0.4788779966190355
1743277699702550016,0.0,-0.00532648479565978,-0.00532648479565978,0.172106698155403,9.803176347476203,-0.48498021904183947
1743277699707549952,-0.00106529693584889,0.0,-0.00532648479565978,0.172106698155403,9.797086003071081,-0.49107053497250364
1743277699712549888,-0.00106529693584889,-0.003195890923962,-0.00426118774339557,0.172106698155403,9.790995949069567,-0.49716056050092045
1743277699717550080,-0.00106529693584889,-0.00745707890018821,-0.00213059387169778,0.172106698155403,9.79095935821533,-0.497197151184082
1743277699722550016,-0.00106529693584889,-0.00426118774339557,-0.00532648479565978,0.172106698155403,9.79095935821533,-0.497197151184082
1743277699727559936,0.003195890923962,-0.00852237548679113,0.00213059387169778,0.172106698155403,9.79095935821533,-0.497197151184082
1743277699732559872,-0.00426118774339557,-0.0106529695913196,-0.00426118774339557,0.172106698155403,9.79095935821533,-0.492002963180407
1743277699737560064,0.0,-0.00532648479565978,-0.003195890923962,0.172106698155403,9.79095935821533,-0.4859204063199976
1743277699742560000,0.00532648479565978,-0.00852237548679113,0.003195890923962,0.172106698155403,9.79095935821533,-0.47983813949186266
1743277699747559936,0.00213059387169778,-0.0117182666435838,-0.00639178184792399,0.172106698155403,9.79095935821533,-0.478074163198471
1743277699752559872,0.00213059387169778,-0.00639178184792399,0.00106529693584889,0.172106698155403,9.79095935821533,-0.478074163198471
1743277699757570048,0.003195890923962,-0.003195890923962,-0.00745707890018821,0.172106698155403,9.79095935821533,-0.478074163198471
1743277699762569984,0.003195890923962,-0.00639178184792399,-0.00639178184792399,0.172106698155403,9.79442833994412,-0.478074163198471
1743277699767569920,0.00106529693584889,-0.003195890923962,-0.00532648479565978,0.172106698155403,9.800514802323123,-0.478074163198471
1743277699772569856,0.0,-0.00532648479565978,-0.00213059387169778,0.172106698155403,9.806600974483626,-0.478074163198471
1743277699777570048,0.00106529693584889,-0.00532648479565978,-0.00639178184792399,0.172106698155403,9.80747581243323,-0.478074163198471
1743277699782569984,0.00426118774339557,-0.00852237548679113,-0.003195890923962,0.172106698155403,9.801385850914047,-0.478074163198471
1743277699787579904,-0.00426118774339557,-0.00426118774339557,-0.003195890923962,0.172106698155403,9.795283402229476,-0.478074163198471
1743277699792579840,0.00106529693584889,-0.00745707890018821,-0.00532648479565978,0.172106698155403,9.79272417691296,-0.4798389736449668
1743277699797580032,0.0,-0.00958767253905535,-0.00532648479565978,0.172106698155403,9.798810639291963,-0.485925407567662
1743277699802580224,-0.00213059387169778,-0.00745707890018821,0.00106529693584889,0.172106698155403,9.804897101670964,-0.4920118414903572
1743277699807579904,0.00106529693584889,0.00106529693584889,0.0,0.17300751779412232,9.809181611055582,-0.4962963308434185
1743277699812580096,-0.00532648479565978,-0.00213059387169778,-0.00745707890018821,0.17909385460572727,9.803095241045456,-0.490209989289168
1743277699817590016,-0.00106529693584889,-0.00639178184792399,-0.00106529693584889,0.18519209013034366,9.796996972257418,-0.48411174901263415
1743277699822590208,0.003195890923962,-0.003195890923962,-0.00532648479565978,0.1911809147978238,9.79095935821533,-0.47812291967849263
1743277699827589888,-0.00106529693584889,-0.00532648479565978,-0.00745707890018821,0.18509477583476303,9.79095935821533,-0.48420906338404485
1743277699832590080,-0.00106529693584889,-0.00852237548679113,0.0,0.1790083466547854,9.79095935821533,-0.49029549730674005
1743277699837590016,0.00213059387169778,-0.00426118774339557,-0.003195890923962,0.17292220769172462,9.79095935821533,-0.49638164101229226
1743277699842600192,0.00213059387169778,-0.00639178184792399,-0.00213059387169778,0.172106698155403,9.796245785161839,-0.4919107489534391
1743277699847599872,0.0,-0.00639178184792399,-0.00745707890018821,0.172106698155403,9.802335746681022,-0.4858208159069213
1743277699852600064,0.00106529693584889,-0.00639178184792399,-0.00532648479565978,0.172106698155403,9.808425998599402,-0.4797305924625661
1743277699857600000,0.003195890923962,-0.00958767253905535,0.00106529693584889,0.172106698155403,9.805651669770592,-0.482504908320433
1743277699862600192,-0.00426118774339557,-0.00532648479565978,-0.003195890923962,0.172106698155403,9.799565207391591,-0.4885913422431283
1743277699867599872,-0.00106529693584889,-0.00426118774339557,-0.00426118774339557,0.172106698155403,9.793479035231089,-0.4946774859486805
1743277699872610048,-0.00106529693584889,-0.00106529693584889,-0.00106529693584889,0.179264499563062,9.776643855796115,-0.500776049099131
1743277699877609984,-0.00106529693584889,-0.00426118774339557,-0.00532648479565978,0.19143659276124697,9.75229984012685,-0.5068620909558039
1743277699882610176,0.0,-0.0106529695913196,-0.00106529693584889,0.2036092663844569,9.727954663615678,-0.5129484230247633
1743277699887609856,0.0,-0.00958767253905535,-0.00639178184792399,0.20492384667788582,9.725325521467266,-0.5054625183048094
1743277699892610048,-0.0202406421303749,-0.00426118774339557,-0.0170447509735823,0.19275098831793058,9.74967106744934,-0.4811168110703343
1743277699897609984,-0.0330242030322552,-0.0117182666435838,-0.0298283156007528,0.180578710391809,9.774015452571886,-0.4567722647030744
1743277699902620160,-0.00106529693584889,-0.00532648479565978,-0.00852237548679113,0.24288486477694332,9.80027223565066,-0.31317258482927873
1743277699907619840,0.00958767253905535,-0.0106529695913196,0.0106529695913196,0.47415456440616144,9.830702331115955,0.10067844163641843
1743277699912620032,-0.0234365332871675,-0.00426118774339557,-0.0234365332871675,0.7054352921074616,9.861133877637256,0.5145492025461795
1743277699917619968,-0.0245018284767866,-0.0202406421303749,-0.025567127391696,0.9546705710056053,9.882581595593535,0.959340984158587
1743277699922620160,-0.0191753450781107,-0.0383506901562214,-0.00745707890018821,1.2955105102299949,9.858236049611461,1.5618972690395045
1743277699927619840,-0.0138488598167896,-0.123574443161488,-0.00639178184792399,1.6363341973115642,9.833891664488911,2.1644248224553793
1743277699932630016,-0.00532648479565978,-0.225842952728271,0.00532648479565978,1.9610358899035485,9.80920482818322,2.7390804653285823
1743277699937629952,-0.0202406421303749,-0.341960310935974,0.00426118774339557,1.6019592496327462,9.772688349407042,2.13047603305548
1743277699942630144,-0.0383506901562214,-0.45594710111618,-0.0266324244439602,1.2428654868289088,9.736170129346295,1.5218425795419852
1743277699947629824,-0.0138488598167896,-0.567803263664246,0.0138488598167896,0.8837888465581065,9.699653650570118,0.9132381472688829
1743277699952630016,0.0287630185484886,-0.663679957389832,0.0436771735548973,0.33143720417673894,9.85102014427867,-0.04970073675256015
1743277699957639936,-0.0266324244439602,-0.658353507518768,-0.0223712362349033,-0.24790379649258487,10.027871710684042,-1.0620228453176161
1743277699962640128,-0.0351548008620739,-0.426118791103363,-0.0106529695913196,-0.8261144025953334,10.2043782090733,-2.072369738232781
1743277699967639808,0.0681790038943291,-0.122509144246578,0.0575260370969772,-0.8172114982004959,9.951854734727782,-1.9310782997780358
1743277699972640000,0.134227409958839,0.0234365332871675,0.131031513214111,-0.6041897714487191,9.55015674229413,-1.3893945559348413
1743277699977639936,0.169382214546204,-0.00106529693584889,0.140619203448296,-0.3911782021319391,9.148477903874994,-0.8477366409941758
1743277699982640128,0.0394159853458405,-0.0990726128220558,0.0692443028092384,-0.3680085169352171,9.235958773810582,-0.7916347445057302
1743277699987649792,-0.0628525167703629,-0.238626524806023,-0.0490036569535732,-0.471614041078238,9.650380452473957,-1.059790160653301
1743277699992649984,-0.100137911736965,-0.381376326084137,-0.124639742076397,-0.5750174129112668,10.063993522712778,-1.3274223591707357
1743277699997649920,-0.219451159238815,-0.493232488632202,-0.105464398860931,-0.6449954140391289,10.185018514477132,-1.600693041969328
1743277700002650112,-0.0692443028092384,-0.559280872344971,-0.0447424724698067,-0.675427055413342,9.959824341749139,-1.8806644309649463
1743277700007649792,-0.00213059387169778,-0.539040267467499,0.0575260370969772,-0.7058572457270281,9.734640906870311,-2.160622470189966
1743277700012649984,0.0223712362349033,-0.485775411128998,0.0213059391826391,-0.634298423498657,9.62102025339894,-2.2366570733159827
1743277700017659904,-0.0788319706916809,-0.406943440437317,-0.036220096051693,-0.3413965280721355,9.74916496875844,-1.8705297064103061
1743277700022660096,-0.0649831146001816,-0.302544325590134,-0.0532648488879204,-0.04906613494002632,9.877059651598557,-1.505116717368006
1743277700027659776,0.00532648479565978,-0.140619203448296,0.0138488598167896,0.1988112954434705,9.952945763590213,-1.161423392063326
1743277700032659968,0.0735054910182953,0.012783563695848,0.0543301440775394,0.24141628547516042,9.788612189958972,-0.9179662912622706
1743277700037659904,0.088419646024704,0.0703096017241478,0.0490036569535732,0.2840192439891108,9.624286452183808,-0.674520799134723
1743277700042660096,0.0990726128220558,0.0948114320635796,0.0628525167703629,0.32202289285240576,9.472880478727927,-0.4361033703440809
1743277700047669760,0.0447424724698067,0.0990726128220558,0.0468730665743351,0.23664762283130292,9.668023863454296,-0.3324333973130674
1743277700052669952,-0.00745707890018821,0.0852237567305565,-0.0213059391826391,0.15143893473904718,9.862786489661,-0.22896570234298155
1743277700057670144,-0.0617872215807438,0.0553954392671585,-0.0628525167703629,0.06623024664679145,10.057549115867701,-0.12549800737289563
1743277700062670080,-0.051134254783392,0.0234365332871675,-0.0500689558684826,0.11731561304908772,9.941561129173683,-0.24008092404254439
1743277700067670016,0.00106529693584889,0.00106529693584889,-0.00426118774339557,0.18422367334276346,9.789497406730696,-0.3799795920109122
1743277700072669952,0.0575260370969772,-0.0170447509735823,0.0436771735548973,0.25112854328452744,9.63744093508508,-0.519871589243634
1743277700077680128,0.0458077676594257,-0.0266324244439602,0.0436771735548973,0.23100852526361051,9.691512190070663,-0.5316204294638551
1743277700082680064,0.00745707890018821,-0.0245018284767866,0.00213059387169778,0.1823201595845007,9.813233178961545,-0.5011901917259732
1743277700087680000,-0.0383506901562214,-0.0234365332871675,-0.0383506901562214,0.1336294722056303,9.934959972105391,-0.47075850292530286
1743277700092679936,-0.0415465831756592,-0.0149141578003764,-0.0383506901562214,0.14081030137303713,9.91142092965119,-0.4738497864627982
1743277700097680128,-0.00426118774339557,-0.012783563695848,-0.00532648479565978,0.18341529377608567,9.795778751518029,-0.4981955126681439
1743277700102690048,0.0351548008620739,-0.00426118774339557,0.0298283156007528,0.22610357841108752,9.67991049436029,-0.5225888344663953
1743277700107689984,0.0287630185484886,-0.00852237548679113,0.0202406421303749,0.2284888855616237,9.67630891543899,-0.5153334337670202
1743277700112689920,-0.00532648479565978,-0.003195890923962,-0.003195890923962,0.18588657122402583,9.798029904329878,-0.47273111231579296
1743277700117690112,-0.0319589078426361,-0.00639178184792399,-0.0308936107903719,0.143282225399406,9.91975669747373,-0.43012675937720457
1743277700122690048,-0.0234365332871675,-0.00745707890018821,-0.0234365332871675,0.1287959047932341,9.963154527808593,-0.41764873585175344
1743277700127689984,0.0106529695913196,-0.00532648479565978,0.00958767253905535,0.17140089719628265,9.847512349675421,-0.4663401598061385
1743277700132699904,0.0298283156007528,-0.00639178184792399,0.0266324244439602,0.2140891818312845,9.731644092517673,-0.5151267748907034
1743277700137700096,0.0223712362349033,-0.00745707890018821,0.012783563695848,0.2416595971223126,9.656479628125561,-0.5464706082043055
1743277700142700032,-0.0106529695913196,-0.00532648479565978,-0.0170447509735823,0.2051433317550168,9.753856297832328,-0.5038682867530779
1743277700147699968,-0.0276977196335793,-0.00852237548679113,-0.0287630185484886,0.16862532511332462,9.851237610935677,-0.46126393381448927
1743277700152699904,-0.0138488598167896,-0.00532648479565978,-0.0181100480258465,0.1350286142071877,9.940439535071635,-0.42245703795865386
1743277700157700096,0.0138488598167896,-0.00639178184792399,0.00745707890018821,0.15937432144166266,9.867402593591484,-0.45897561303851925
1743277700162710016,0.0223712362349033,-0.00639178184792399,0.0191753450781107,0.18376762423195553,9.794222865796211,-0.4955655814799274
1743277700167709952,0.012783563695848,-0.00532648479565978,0.00639178184792399,0.2081133314664305,9.72118592431606,-0.5320841565597928
1743277700172709888,-0.0159794539213181,-0.00532648479565978,-0.0170447509735823,0.19931426266178132,9.747583052691294,-0.5133663552288417
1743277700177710080,-0.0213059391826391,-0.00213059387169778,-0.0266324244439602,0.18715708693305508,9.784054475672107,-0.48905199429817436
1743277700182710016,-0.00532648479565978,-0.00639178184792399,-0.00958767253905535,0.1750004908903735,9.820524159599755,-0.46473879274004803
1743277700187740160,0.0149141578003764,-0.00213059387169778,0.00532648479565978,0.172106698155403,9.819862949695219,-0.4636224575480187
1743277700192739840,0.0138488598167896,-0.00958767253905535,0.0159794539213181,0.172106698155403,9.8076983591653,-0.4697047148972126
1743277700197740032,0.0,-0.00639178184792399,-0.00745707890018821,0.172106698155403,9.795533188568122,-0.47578726227822904
1743277700202739968,-0.0117182666435838,-0.00852237548679113,-0.0159794539213181,0.17590447672917695,9.7871615589262,-0.48187194473158135
1743277700207740160,-0.0117182666435838,-0.00958767253905535,-0.0170447509735823,0.18199090590915457,9.7810750965472,-0.48795837865427655
1743277700212739840,0.00745707890018821,-0.003195890923962,0.0,0.18807704487221533,9.774988924386697,-0.49404452235982876
1743277700217750016,0.0170447509735823,-0.00745707890018821,0.0149141578003764,0.18533777910717109,9.786565950321975,-0.4913052567558346
1743277700222749952,0.00745707890018821,-0.00426118774339557,0.00213059387169778,0.17316569065140594,9.81699604578727,-0.4791331635576497
1743277700227750144,-0.00958767253905535,-0.00639178184792399,-0.012783563695848,0.160993021770842,9.847427592308572,-0.4669604899344397
1743277700232749824,-0.0106529695913196,-0.0106529695913196,-0.0223712362349033,0.16130935328619136,9.854962324956105,-0.4860094539625418
1743277700237750016,0.0,-0.00426118774339557,-0.003195890923962,0.1856546910473193,9.818444408424682,-0.5651318182854683
1743277700242759936,0.0159794539213181,-0.00106529693584889,0.00639178184792399,0.21004762364194934,9.78185509981917,-0.6444088658497282
1743277700247760128,0.00745707890018821,-0.00532648479565978,0.00852237548679113,0.22701688574607004,9.756401300126361,-0.6694396958162151
1743277700252759808,-0.00426118774339557,-0.003195890923962,-0.003195890923962,0.21484461256244028,9.774659816607866,-0.48076943775749426
1743277700257760000,-0.0351548008620739,0.0351548008620739,-0.00745707890018821,0.20267175894520295,9.792919203744868,-0.2920901829767259
1743277700262759936,-0.0458077676594257,0.0767013803124428,-0.0223712362349033,0.19159475858054528,9.81008243560791,-0.11692832458673386
1743277700267760128,-0.0671137049794197,0.0330242030322552,-0.0575260370969772,0.19768109539215026,9.81008243560791,-0.1534463335997487
1743277700272770048,-0.0447424724698067,-0.0159794539213181,-0.0436771735548973,0.20377933091676664,9.81008243560791,-0.19003573486765266
1743277700277769984,0.00745707890018821,-0.0106529695913196,0.00532648479565978,0.20986566772837162,9.81008243560791,-0.2265537438806675
1743277700282769920,0.012783563695848,-0.0181100480258465,0.0202406421303749,0.16555941650978775,9.81008243560791,-0.1398891512415806
1743277700287770112,-0.00745707890018821,-0.0426118783652782,-0.00532648479565978,0.11686799611244086,9.81008243560791,-0.042506315189604765
1743277700292769792,-0.0287630185484886,-0.12037855386734,-0.012783563695848,0.06817889744980679,9.81008243560791,0.05487187739317159
1743277700297779968,-0.0159794539213181,-0.213059395551682,0.00426118774339557,-0.11828100528472645,9.776851417142973,-0.2700606455581418
1743277700302779904,-0.012783563695848,-0.267389535903931,-0.0106529695913196,-0.34346465712924723,9.73424916208562,-0.7143419026480915
1743277700307780096,-0.00106529693584889,-0.289760768413544,0.00639178184792399,-0.568659046833281,9.691644875544071,-1.1586443452445547
1743277700312779776,0.00426118774339557,-0.323850274085999,0.0319589078426361,-0.7860792554353657,9.687870153824734,-1.6223440145068366
1743277700317779968,-0.0266324244439602,-0.374984532594681,-0.0181100480258465,-0.9991042055938151,9.706129237427808,-2.0970854241470365
1743277700322779904,-0.0149141578003764,-0.387768059968948,-0.00213059387169778,-1.2121189981635674,9.724387450389855,-2.5718041968708887
1743277700327790080,-0.00532648479565978,-0.3771151304245,0.0,-1.0254797884938631,9.76996192703744,-2.6686203647292643
1743277700332790016,-0.0202406421303749,-0.360070377588272,-0.0266324244439602,-0.4351334438514226,9.84299458107494,-2.3825761698295014
1743277700337789952,-0.0170447509735823,-0.273781329393387,-0.00958767253905535,0.15524105139636046,9.916030717667113,-2.0965183349414263
1743277700342789888,-0.00958767253905535,-0.204537019133568,-0.0340895019471645,0.44883957941159797,9.94141519853263,-1.975084218876689
1743277700347790080,0.0117182666435838,-0.12037855386734,-0.00213059387169778,0.20553755619913955,9.880589648887321,-2.151478168761307
1743277700352790016,-0.0639178156852722,-0.0202406421303749,-0.0170447509735823,-0.037764467013318814,9.819764099242011,-2.327872118645925
1743277700357799936,-0.0159794539213181,0.106529697775841,-0.0436771735548973,-0.2828770102641181,9.823935255420269,-2.509844303340961
1743277700362799872,0.0468730665743351,0.185361668467522,-0.0468730665743351,-0.5324048449481933,10.06737723320203,-2.710683798429234
1743277700367800064,0.0298283156007528,0.297217845916748,0.0308936107903719,-0.7819445783416616,10.31083081948972,-2.9115328705283834
1743277700372800000,-0.00426118774339557,0.376049816608429,0.025567127391696,-0.9929205722806514,10.545958324895043,-3.0830209258402594
1743277700377799936,-0.0159794539213181,0.448490023612976,0.0798972696065903,-0.7068721287528923,10.673767029707202,-2.876092286461043
1743277700382800128,-0.0926808342337608,0.482579499483109,0.0990726128220558,-0.4208100450342255,10.801581829064437,-2.6691537797107245
1743277700387810048,-0.193884029984474,0.530517876148224,0.132096812129021,-0.13418871348833816,10.929646504769835,-2.4618107107452256
1743277700392809984,-0.289760768413544,0.548627912998199,0.205602318048477,0.24262918462706667,9.554249217752535,-2.2718925636616785
1743277700397809920,-0.385637521743774,0.591239809989929,0.265258938074112,0.626049989953352,8.06925424593723,-2.083225152286752
1743277700402810112,-0.193884029984474,0.65302699804306,0.305740207433701,1.0094890786617041,6.584188462287878,-1.894548744325522
1743277700407810048,-0.0713749006390572,0.721206068992615,0.123574443161488,1.0082727247615184,7.459914513669979,-1.85492777824402
1743277700412809984,0.122509144246578,0.805364489555359,-0.0830931663513184,0.9048034713863582,8.963261918799283,-1.85492777824402
1743277700417819904,0.18749226629734,0.876739382743835,-0.223712354898453,0.8011319369036078,10.469548349467892,-1.85492777824402
1743277700422820096,0.276977211236954,0.959832549095154,-0.142749801278114,0.6383210619938946,10.69108009192199,-1.791628971385408
1743277700427820032,0.169382214546204,1.05783987045288,-0.0969420149922371,0.44356763247439174,10.222454679261403,-1.694252263739285
1743277700432819968,0.10759499669075,1.16223895549774,-0.0436771735548973,0.2488049161574295,9.753806920245722,-1.5968709126947713
1743277700437819904,0.0948114320635796,1.24639749526978,-0.0426118783652782,0.09115014294309315,9.646904364632592,-1.3696428986452471
1743277700442830080,0.111856177449226,1.31138062477112,-0.0575260370969772,-0.030822184848877693,9.890848906163358,-1.0159231518503051
1743277700447830016,0.178969889879227,1.37636363506317,-0.0894849449396133,-0.1525449261701597,10.134294274986127,-0.6629272058125812
1743277700452829952,0.247148886322975,1.51272165775299,-0.100137911736965,-0.48257971808420397,10.37327025968715,-0.4196695140172363
1743277700457829888,0.164055734872818,1.65227556228638,-0.12037855386734,-1.1703027561455086,10.604540077876855,-0.3648951183375023
1743277700462830080,0.117182664573193,1.78117644786835,-0.0319589078426361,-1.858058588209868,10.835820924144297,-0.3101181107462868
1743277700467830016,-0.0404812842607498,1.89942443370819,0.0330242030322552,-2.331231333494029,10.874544266989226,-0.04629220095366057
1743277700472840192,-0.181100472807884,1.93457925319672,0.100137911736965,-2.0689908372952797,10.252485457979425,0.935585120460257
1743277700477839872,-0.296152532100677,1.87172675132751,0.147010982036591,-1.8072869519910073,9.631699539841776,1.9154532706159277
1743277700482840064,-0.135292708873749,1.71512806415558,0.185361668467522,-1.5638949425690534,9.15224150225676,2.81107640266418
1743277700487840000,0.249279484152794,1.39766955375671,0.162990435957909,-1.51520660771567,10.174697141207488,2.81107640266418
1743277700492839936,0.48044890165329,1.10151708126068,0.176839292049408,-1.4665159511639962,11.197201535851267,2.81107640266418
1743277700497839872,0.908698320388794,0.752099633216858,0.280173093080521,-1.417827616310613,12.219657174801995,2.81107640266418
1743277700502850048,1.02588093280792,0.34835210442543,0.364331543445587,-1.795102025333204,12.133004567940501,1.458037587049942
1743277700507849984,0.367527455091476,-0.012783563695848,0.466600060462952,-2.1967871115303654,11.98085087096689,0.027795286417541476
1743277700512849920,0.296152532100677,-0.196014627814293,0.614676356315613,-2.5984913520399675,11.828689918559727,-1.4025152151733549
1743277700517849856,0.388833373785019,-0.251410067081451,0.667941153049469,-2.192781635012652,12.479035107261165,-1.4528373726663328
1743277700522850048,0.403747528791428,-0.235430628061295,0.817082762718201,-1.5902344187152007,13.325035985728633,-1.166779613660589
1743277700527849984,0.518799602985382,-0.204537019133568,1.00244438648224,-0.9877159334503784,14.170996524653926,-0.8807354946395395
1743277700532860160,0.654092311859131,-0.169382214546204,1.31883764266968,-0.7961654579927814,14.448880953902494,-1.159879689358306
1743277700537859840,0.726532518863678,-0.158729240298271,1.61712086200714,-0.8144238796244553,14.43670860958151,-1.7258904374507642
1743277700542860032,0.784058511257172,-0.175773993134499,1.87172675132751,-0.8326831719071057,14.424535684823525,-2.2919281757081214
1743277700547859968,1.03866446018219,-0.20027582347393,2.23392772674561,-0.8318797056994779,14.078783099350638,-2.9881896090956497
1743277700552859904,1.16650009155273,-0.219451159238815,2.59399795532227,-0.8136206905220174,13.42754515061917,-3.8037584857478386
1743277700557869824,1.24852800369263,-0.194949328899384,2.90719532966614,-0.7953259791962507,12.775034039771645,-4.620921789442882
1743277700562870016,1.45732617378235,-0.110790878534317,3.27898406982422,-1.0515787830910357,11.893319136200285,-5.69259920909537
1743277700567869952,1.13134527206421,0.052199549973011,3.48032522201538,-1.7519309690673865,10.638775301001331,-7.178563881499711
1743277700572870144,0.906567752361298,0.265258938074112,3.62200951576233,-2.4523165512664247,9.384171643007317,-8.664599411978173
1743277700577869824,0.662614703178406,0.826670408248901,3.83826494216919,-2.511877933748411,8.302146812400933,-8.958811499713798
1743277700582870016,-0.102268509566784,1.60753297805786,3.88087677955627,-0.5642507610934984,7.760463068557738,-5.520032211340574
1743277700587879936,-0.597631573677063,2.06241488456726,3.67953586578369,1.3871839985382812,7.217720339710843,-2.0745301520907846
1743277700592880128,-0.506016075611115,2.1604220867157,3.55276536941528,3.1690675874938288,6.5990597967935685,1.0035848806593002
1743277700597879808,0.0404812842607498,2.1806628704071,3.67207860946655,3.491632890883656,5.302712562833484,0.906206695190262
1743277700602880000,0.368592739105225,2.26695203781128,3.51867580413818,3.814213575767136,4.006303512687527,0.8088238662523635
1743277700607880192,0.165121033787727,2.3734815120697,2.79746985435486,4.136794260650616,2.709894462541569,0.7114410373144648
1743277700612879872,-0.334503263235092,2.47894597053528,1.86320436000824,3.577449693189484,3.0785094371528663,0.29297193955767664
1743277700617889792,-0.748903751373291,2.59506320953369,0.997117936611176,2.9802034562972164,3.5173025194577265,-0.13972685347914493
1743277700622889984,-0.866086423397064,2.67602610588074,0.340895026922226,2.3841225501864924,3.9552394405112428,-0.571581376277804
1743277700627890176,-0.680724740028381,2.77722907066345,-0.170447513461113,1.7279794305906289,4.418303504317557,-0.4659701007070237
1743277700632890112,-0.42931467294693,2.88482427597046,-0.624264001846313,1.0585043485810854,4.886936029001046,-0.24078303139677343
1743277700637890048,-0.237561225891113,3.01052927970886,-1.08127641677856,0.38899734272041386,5.355590900378765,-0.01558522406404883
1743277700642889984,-0.180035188794136,3.08083868026733,-1.52017867565155,0.3161086573102967,6.173937712546017,0.7238922409413971
1743277700647900160,-0.221581757068634,3.01052927970886,-1.88664078712463,0.5295570010840808,7.161898644353698,1.7118531264156787
1743277700652900096,-0.279107809066772,2.7900128364563,-2.14870381355286,0.7425685751432806,8.14783795628569,2.6977923921090814
1743277700657900032,-0.336633861064911,2.43420362472534,-2.2829315662384,0.9882153103806853,9.05553656483234,2.99543562376788
1743277700662899968,-0.379245728254318,1.98571348190308,-2.29464960098267,1.2620914830960612,9.895423770189655,2.697214933140193
1743277700667900160,-0.350482672452927,1.5180481672287,-2.19344639778137,1.5359807155688503,10.735351025482851,2.3989800218892348
1743277700672910080,-0.25354066491127,1.078080534935,-1.98038709163666,1.8004489589465695,11.32118740674449,1.7521682129381184
1743277700677910016,-0.153402760624886,0.724401891231537,-1.69169163703918,2.0491959347266206,11.515331299285512,0.5751702592781993
1743277700682909952,-0.0777666792273521,0.500689566135406,-1.37103712558746,2.297931049598042,11.709465934536215,-0.6017715720303154
1743277700687959808,0.003195890923962,0.413335204124451,-1.07701528072357,2.435010313976884,11.874776747842406,-1.6120788512775395
1743277700692960000,0.0937461331486702,0.492167174816132,-0.839453995227814,2.2342861366506295,11.94776716474431,-2.0865177745022425
1743277700697959936,0.122509144246578,0.682855367660522,-0.676463544368744,2.033571530379941,12.020754101271576,-2.5609340752339445
1743277700702960128,0.0298283156007528,0.934265434741974,-0.573129773139954,1.8314945788367796,12.099775229388602,-2.914891859769128
1743277700707959808,-0.183231070637703,1.18567550182343,-0.498558968305588,1.6184830379745165,12.227582298075511,-2.2941152868736454
1743277700712969984,-0.445294111967087,1.38169014453888,-0.427184075117111,1.4050347274657378,12.355651428845942,-1.6720658422679677
1743277700717969920,-0.648765802383423,1.51272165775299,-0.337699145078659,1.1920231866034747,12.483458497532851,-1.0512892693724853
1743277700722970112,-0.788319706916809,1.59581482410431,-0.250344783067703,1.1561248299675397,12.49319758166295,-0.8025468516124508
1743277700727969792,-0.895914733409882,1.66825497150421,-0.161925137042999,1.125713505305807,12.499279573601774,-0.5653387107255405
1743277700732969984,-1.03653395175934,1.7353687286377,-0.0671137049794197,1.095300730483154,12.505361855559764,-0.3281192585925816
1743277700737979904,-1.21230792999268,1.7641316652298,0.0330242030322552,0.974106384946827,12.239340184326188,-0.45313971505780526
1743277700742980096,-1.41364908218384,1.83018004894257,0.149141564965248,0.8341206904490162,11.916764698494855,-0.6539887587010809
1743277700747980032,-1.59048843383789,1.9580157995224,0.273781329393387,0.6941349959512053,11.594189212663522,-0.8548378023443565
1743277700752979968,-1.73749923706055,2.09011268615723,0.403747528791428,0.629305589693329,11.192299374710215,-0.6924492126841933
1743277700757980160,-1.93564462661743,2.22327470779419,0.536909639835358,0.5988734675070297,10.754076511693572,-0.36378214367655326
1743277700762980096,-2.08052492141724,2.36922025680542,0.690312385559082,0.5684427964041842,10.31587454429313,-0.035130746377334154
1743277700767990016,-2.17107534408569,2.48107647895813,0.845845818519592,0.6974646354335651,9.853515171153298,0.3074847074381903
1743277700772989952,-2.16681408882141,2.6153039932251,1.01842391490936,0.9591645301188905,9.372717598900655,0.6604753082235306
1743277700777990144,-2.06667613983154,2.68987464904785,1.18567550182343,1.220876903937051,8.891897099864728,1.0134827413297325
1743277700782990080,-1.92499160766602,2.69626665115356,1.32842528820038,1.403899474409716,8.509445273274821,1.3123837193598693
1743277700787990016,-1.85787785053253,2.67069935798645,1.42856311798096,1.4708501811613148,8.272074606396464,1.5314950749847052
1743277700792989952,-1.83444130420685,2.63660979270935,1.48608934879303,1.5377976955275068,8.03471525797447,1.7505959828050575
1743277700798000128,-1.78969883918762,2.62808752059937,1.50632989406586,1.5952407816329741,7.800083957845102,1.9251519062464288
1743277700803000064,-1.69275689125061,2.63980579376221,1.50739514827728,1.625671028855694,7.574900219451425,1.9738402790391687
1743277700808000000,-1.55426824092865,2.63234877586365,1.49567699432373,1.6561027271416546,7.34970574319411,2.0225309735320085
1743277700812999936,-1.40193068981171,2.62169575691223,1.45413029193878,1.7147432585264206,7.148277583889633,2.074188938262732
1743277700818000128,-1.24320149421692,2.59293270111084,1.35718834400177,1.9764595852120788,7.117845423761589,2.1472261073933323
1743277700823000064,-1.15584719181061,2.54179835319519,1.21656918525696,2.238163432576419,7.0874147147188085,2.220259793920026
1743277700828009984,-1.12282288074493,2.49279499053955,1.02375030517578,2.500403890757442,7.056921609009734,2.293443232414707
1743277700833009920,-1.09832108020782,2.45124840736389,0.814952194690704,2.4393656820797394,7.37313622286274,2.7370270781464687
1743277700838010112,-1.07594990730286,2.40544056892395,0.613611042499542,2.372416067262352,7.695712012223405,3.1874158030141135
1743277700843010048,-1.04718685150146,2.34897971153259,0.434641152620316,2.3054696447783054,8.018272420323846,3.637783052165333
1743277700848009984,-0.939591944217682,2.27547430992126,0.285499602556229,2.018683356549258,8.443101593758145,4.077952731526241
1743277700853019904,-0.801103293895721,2.14763855934143,0.180035188794136,1.6893737451203577,8.888279538376622,4.517032314807219
1743277700858020096,-0.786189138889313,1.95375466346741,0.136358007788658,1.3607066737413591,9.33258886377227,4.95525517782386
1743277700863020032,-0.879935264587402,1.70447516441345,0.164055734872818,1.0704016061298285,9.308237111655473,4.656417307637254
1743277700868019968,-0.999248504638672,1.48289334774017,0.250344783067703,0.7965165017767124,9.083042635398153,4.0416974272018855
1743277700873019904,-1.04079508781433,1.32949066162109,0.367527455091476,0.5226444569841701,8.857858897004474,3.42700685822372
1743277700878020096,-0.980073153972626,1.27302992343903,0.509211957454681,0.5883687635687963,8.571532473251233,3.1858546702232067
1743277700883030016,-0.844780445098877,1.28687870502472,0.655157625675201,0.9237766698073377,8.236124576516671,3.240739542101496
1743277700888029952,-0.646635234355927,1.32629466056824,0.777666747570038,1.2585301371672906,7.901371118642154,3.2955173240950946
1743277700893029888,-0.444228827953339,1.38169014453888,0.85862934589386,1.66449758799463,7.6862037727018775,3.4138922485067753
1743277700898030080,-0.280173093080521,1.44454264640808,0.866086423397064,2.1696633773652363,7.63751296438554,3.62082769061605
1743277700903030016,-0.176839292049408,1.48076272010803,0.839453995227814,2.6748050791052225,7.588824477774732,3.8277532655003528
1743277700908029952,-0.0607219263911247,1.46691381931305,0.786189138889313,3.04559099553373,7.593886365759082,3.8902289088882647
1743277700913039872,0.0980073139071465,1.41897547245026,0.738250732421875,3.06388600351438,7.740246429604301,3.573115944102519
1743277700918040064,0.193884029984474,1.33055591583252,0.698834776878357,3.0821453147678994,7.886320919632472,3.256621721598038
1743277700923040000,0.178969889879227,1.20485079288483,0.648765802383423,3.097092975923252,8.068806281723779,2.955041581484823
1743277700928039936,0.0788319706916809,1.08340704441071,0.572064459323883,3.0910066817954576,8.482677014177666,2.7481061393755484
1743277700933039872,-0.0649831146001816,0.997117936611176,0.487905979156494,3.084920677878141,8.896528012188845,2.5411805644912455
1743277700938050048,-0.192818760871887,0.956636607646942,0.444228827953339,3.078822194910305,9.311227591236431,2.333830698933154
1743277700943049984,-0.254605978727341,0.965158998966217,0.435706436634064,3.2727740853997727,9.55535552516587,2.157210889709584
1743277700948049920,-0.257801860570908,1.00457501411438,0.488971292972565,3.4675397432755735,9.798812502656274,1.9807045430873056
1743277700953049856,-0.24075710773468,1.05997049808502,0.56673800945282,3.6622961142136536,10.04225787147905,1.8042066127508667
1743277700958050048,-0.248214185237885,1.14839005470276,0.639178156852722,3.6023717502928734,9.911477146212674,1.5133530276465672
1743277700963049984,-0.385637521743774,1.26983392238617,0.681790053844452,3.4989090007900767,9.716723806799134,1.2029647601685056
1743277700968059904,-0.580586850643158,1.37529838085175,0.755295515060425,3.395234106028179,9.521571135279602,0.8919400568742425
1743277700973059840,-0.724401891231537,1.50100338459015,0.839453995227814,3.183134791423789,9.20948941254742,0.8987638207786496
1743277700978060032,-0.744642555713654,1.68849563598633,0.896980047225952,2.927504813291908,8.85039025692386,1.0326652153109799
1743277700983059968,-0.716944873332977,1.93244862556458,0.911894202232361,2.671887024268273,8.491308224090481,1.1665602250734013
1743277700988059904,-0.745707869529724,2.16255283355713,0.911894202232361,2.471961493990937,8.233172418438253,1.5650459572039896
1743277700993060096,-0.811756253242493,2.37241625785828,0.908698320388794,2.313716784315668,8.050582380487148,2.161506765550147
1743277700998070016,-0.785123884677887,2.58441042900085,0.90230655670166,2.155162708194819,7.867635381275506,2.7591336473820087
1743277701003070208,-0.596566259860992,2.77403330802917,0.85969465970993,1.9969169610273056,7.7981068137520975,3.2609413068295794
1743277701008069888,-0.434641152620316,2.94448065757751,0.792580902576447,1.838677395412643,7.877226596559429,3.6382819320243267
1743277701013070080,-0.400551646947861,3.016921043396,0.720140755176544,1.680430284160404,7.956350152185548,4.015640550668371
1743277701018070016,-0.479383617639542,2.97324395179749,0.656222939491272,1.5874990796687525,8.072536003370185,4.3276717623697785
1743277701023070208,-0.579521536827087,2.85925698280334,0.628525197505951,1.6544487703684678,8.279471066067803,4.479829950270263
1743277701028079872,-0.608284592628479,2.71970319747925,0.656222939491272,1.7215293468834938,8.486810684247521,4.632285605541714
1743277701033080064,-0.543301463127136,2.61317324638367,0.703095972537994,1.7126983525870867,8.617052440036009,4.705011245476807
1743277701038080000,-0.449555307626724,2.56416988372803,0.754230260848999,1.274496489521463,8.312745804887415,4.327670772041788
1743277701043080192,-0.418661713600159,2.54925560951233,0.786189138889313,0.8362737308446109,8.008424658907904,3.95031230516471
1743277701048079872,-0.436771720647812,2.53221082687378,0.791515648365021,0.400802239421746,7.704508104853041,3.577506157102621
1743277701053090048,-0.534779071807861,2.53647208213806,0.7638179063797,0.3032258513884035,7.448370147449365,3.7665604977229052
1743277701058089984,-0.646635234355927,2.55671262741089,0.69563889503479,0.20584912951502266,7.192756313590393,3.955227984976545
1743277701063090176,-0.752099633216858,2.58014941215515,0.598696827888489,0.10846776424257293,6.937130290811775,4.143904468820106
1743277701068089856,-0.827735722064972,2.57588791847229,0.509211957454681,0.6872903347810962,7.088289964758457,4.712937145583986
1743277701073090048,-0.830931603908539,2.5439293384552,0.447424709796906,1.368970199001722,7.301314933887777,5.339839128213943
1743277701078089984,-0.7638179063797,2.47042369842529,0.427184075117111,2.050617558937386,7.514329745427496,5.966711218512094
1743277701083100160,-0.639178156852722,2.37135100364685,0.465534776449203,2.4190566718904893,7.643590634283065,6.311280015767098
1743277701088099840,-0.515603721141815,2.25097250938416,0.550758540630341,2.6685845018321457,7.740967303989831,6.548635610237985
1743277701093100032,-0.400551646947861,2.11141848564148,0.661549389362335,2.9181242304829693,7.838348617093179,6.786002522986229
1743277701098099968,-0.300413727760315,1.97399520874023,0.782993257045746,2.725600001645066,7.700452399578565,6.584874828551654
1743277701103100160,-0.18749226629734,1.87492263317108,0.877804636955261,2.220748341515279,7.396324803022314,6.0739406968759955
1743277701108099840,-0.0681790038943291,1.8078088760376,0.91935122013092,1.7159207540376062,7.092211708068037,5.563030927880657
1743277701113110016,0.0245018284767866,1.77371942996979,0.911894202232361,1.3423389969113333,6.949538563588565,5.194162631113369
1743277701118109952,0.0948114320635796,1.77691531181335,0.845845818519592,1.135413459966387,7.010399058034007,5.00549521973844
1743277701123110144,0.148076266050339,1.78543770313263,0.757426142692566,0.9284780557982779,7.071262454605932,4.816818811777207
1743277701128109824,0.203471720218658,1.78117644786835,0.681790053844452,0.7877175277470454,7.212992735105318,4.751292750171526
1743277701133110016,0.242887705564499,1.77585005760193,0.612545788288116,0.7998903766215651,7.541659882367799,4.970404181679848
1743277701138109952,0.233300030231476,1.77371942996979,0.575260400772095,0.8120626450627035,7.870311357918128,5.189505165380068
1743277701143120128,0.189622864127159,1.76306641101837,0.556084990501404,0.8360847502542316,8.170036555656376,5.3991771080174455
1743277701148119808,0.145945683121681,1.73217284679413,0.562476813793182,0.9212350996104538,8.316008518126715,5.557313476524025
1743277701153120000,0.0958767309784889,1.67358160018921,0.579521536827087,1.006389509352416,8.461987441255223,5.715457385747238
1743277701158119936,0.012783563695848,1.62138199806213,0.576325654983521,1.090118505659056,8.603694060891872,5.873048550305538
1743277701163120128,-0.175773993134499,1.55533349514008,0.583782732486725,1.096204968038058,8.512397732274716,6.000863501429737
1743277701168130048,-0.370723336935043,1.48076272010803,0.591239809989929,1.1023033293755538,8.420922920466957,6.1289283291988
1743277701173129984,-0.502820134162903,1.43069386482239,0.591239809989929,1.1083897917545555,8.3296265918498,6.256743280322999
1743277701178129920,-0.567803263664246,1.38275539875031,0.590174555778503,1.125132578015773,8.281156653934945,6.1709969216824305
1743277701183130112,-0.605088651180267,1.32949066162109,0.596566259860992,1.1433566883022426,8.238633679441506,6.0555772030930815
1743277701188160000,-0.592305064201355,1.2719646692276,0.632786393165588,1.1616894202645565,8.19585725407015,5.939469545116756
1743277701193159936,-0.515603721141815,1.22509157657623,0.681790053844452,1.0813905142588243,8.086081456473735,5.61334988120431
1743277701198159872,-0.386702805757523,1.17715311050415,0.781927943229675,0.9657539450980442,7.952186427741352,5.211664946766877
1743277701203170048,-0.251410067081451,1.15052080154419,0.914024770259857,0.8498802688620692,7.818016853863982,4.809156377205664
1743277701208169984,-0.115052074193954,1.19739365577698,1.0344033241272,1.1042359447485768,7.724023920208888,5.074910206929551
1743277701213170176,0.036220096051693,1.28474807739258,1.10790884494781,1.6094017151486009,7.657074001862175,5.793097770478392
1743277701218169856,0.165121033787727,1.33268642425537,1.12282288074493,2.1145433979189088,7.590127275863276,6.511251088959353
1743277701223170048,0.102268509566784,1.29007470607758,1.06316637992859,2.426291853477127,7.420940351668565,6.82049673342324
1743277701228169984,-0.254605978727341,1.12921476364136,0.964093744754791,2.5054116362844585,7.128805909081245,6.637912630926302
1743277701233180160,-0.593370378017426,0.907633006572723,0.843715190887451,2.5846936502996822,6.836072459244329,6.45495414874278
1743277701238179840,-0.756360828876495,0.752099633216858,0.703095972537994,2.56257617416651,6.561186279711406,6.175005992765888
1743277701243180032,-0.812821626663208,0.665810585021973,0.565672636032104,2.3192778931183335,6.3239704158765875,5.682326785954192
