#timestamp [ns],w_RS_S_x [rad s^-1],w_RS_S_y [rad s^-1],w_RS_S_z [rad s^-1],a_RS_S_x [m s^-2],a_RS_S_y [m s^-2],a_RS_S_z [m s^-2]
1743286183407670016,-0.00520086986944079,4.82044697491801e-06,-0.00522775994613767,-0.09790396780275104,9.796137561074165,-0.4975520006891602
1743286183413389824,0.00527110556140542,4.82044697491801e-06,-0.00522775994613767,-0.09156701101414687,9.757787520409721,-0.4866594516966858
1743286183419140096,0.0157430805265903,4.82044697491801e-06,-0.0034824307076633,-0.08519650858292036,9.719234467984018,-0.4757092413427823
1743286183424930048,0.0227243974804878,4.82044697491801e-06,8.22767106001265e-06,-0.080784432785405,9.692950727186561,-0.47603673684148445
1743286183430740224,0.0401776917278767,4.82044697491801e-06,8.22767106001265e-06,-0.07754384870169335,9.674005368713075,-0.4830937428469237
1743286183436579840,0.0384323634207249,0.00349547900259495,8.22767106001265e-06,-0.07428664214637992,9.654962830633973,-0.4901869475371954
1743286183442460160,0.034941703081131,-0.00174050882924348,0.00175355689134449,-0.07398658427760886,9.653972555306945,-0.505316068631239
1743286183448359936,0.0244697276502848,4.82044697491801e-06,8.22767106001265e-06,-0.07704237505225323,9.6734647446026,-0.5294942745472174
1743286183454289920,3.51176349795423e-05,0.00175014964770526,-0.00173710158560425,-0.08011372509456127,9.693056182902186,-0.5537955894078904
1743286183460259840,-0.0209088325500488,0.00524080824106932,-0.0034824307076633,-0.0861613347255149,9.700716597909457,-0.5649988909551963
1743286183466249984,-0.0366167947649956,0.00698613747954369,0.00175355689134449,-0.09873139621199752,9.681863191300193,-0.5470628750648086
1743286183472270080,-0.0523247607052326,0.00175014964770526,0.00524421548470855,-0.11136449812784237,9.662915232500483,-0.5290369078130855
1743286183478329856,-0.0558154173195362,0.00524080824106932,0.00524421548470855,-0.12409319265195053,9.657401120832043,-0.5113171760574988
1743286183484410112,-0.0418527834117413,0.00698613747954369,8.22767106001265e-06,-0.1369310982912833,9.726927098444467,-0.49589335682879565
1743286183490530048,-0.0243994910269976,0.00524080824106932,-0.00173710158560425,-0.14985307303271667,9.796908367338407,-0.48036853462733764
1743286183496669952,3.51176349795423e-05,0.00349547900259495,8.22767106001265e-06,-0.16281733402909881,9.867118645020657,-0.4647929085353922
1743286183502070016,0.0279603861272335,4.82044697491801e-06,-0.00173710158560425,-0.18616220837408873,9.797159844299365,-0.491266498225841
1743286183507920128,0.0489043369889259,4.82044697491801e-06,8.22767106001265e-06,-0.21152547326093774,9.720571118274574,-0.5201903686172578
1743286183513780224,0.0611216425895691,4.82044697491801e-06,0.00175355689134449,-0.23693215246596938,9.64385129527407,-0.5491637480177808
1743286183519660032,0.0646122992038727,4.82044697491801e-06,0.00349888624623418,-0.24626757529879634,9.663710359899934,-0.5839134764346248
1743286183525559808,0.0489043369889259,4.82044697491801e-06,0.00524421548470855,-0.2524718833204171,9.702594108676198,-0.6198931918177527
1743286183531470080,0.0244697276502848,4.82044697491801e-06,8.22767106001265e-06,-0.258686972286228,9.741545423976241,-0.6559354275177591
1743286183537400064,-0.0017102116253227,0.00175014964770526,-0.00173710158560425,-0.25637563355914117,9.713094593599452,-0.6566024294808424
1743286183543340032,-0.0296354778110981,4.82044697491801e-06,8.22767106001265e-06,-0.2499925699731394,9.652455458913499,-0.6403772575848509
1743286183549299968,-0.0505794286727905,0.00175014964770526,8.22767106001265e-06,-0.2435879852608141,9.59161187342424,-0.6240973809269077
1743286183555269888,-0.057560745626688,4.82044697491801e-06,0.00175355689134449,-0.23099196249804838,9.605926229370327,-0.5982062037167594
1743286183561260032,-0.0610514059662819,0.00349547900259495,0.00175355689134449,-0.21261206108697853,9.69020255063356,-0.5633250333481326
1743286183567270144,-0.0610514059662819,4.82044697491801e-06,0.00524421548470855,-0.19417070800744307,9.77476064275279,-0.5283272406936053
1743286183573289984,-0.0593060739338398,4.82044697491801e-06,8.22767106001265e-06,-0.17557872225886925,9.812416632572372,-0.49761489882669585
1743286183579320064,-0.0540700890123844,4.82044697491801e-06,-0.00871841888874769,-0.1567450038728525,9.767138945745515,-0.4745160982951521
1743286183585370112,-0.0435981117188931,4.82044697491801e-06,-0.0034824307076633,-0.13784798763136105,9.721709086075341,-0.4513396654815642
1743286183591439872,-0.0313808061182499,-0.0052311671897769,-0.0034824307076633,-0.12021573688672078,9.687795998374805,-0.4301671035790138
1743286183597520128,-0.0121821872889996,4.82044697491801e-06,8.22767106001265e-06,-0.10778241945810925,9.699804864077672,-0.4171558620286845
1743286183603620096,-0.0017102116253227,4.82044697491801e-06,8.22767106001265e-06,-0.09530863597402854,9.7118528143956,-0.40410227348405364
1743286183609730048,0.00701643479987979,4.82044697491801e-06,8.22767106001265e-06,-0.0830757415543153,9.723139484464586,-0.39212653904812644
1743286183615859968,0.020979069173336,-0.00174050882924348,8.22767106001265e-06,-0.07669999395781336,9.716840001425403,-0.4049148587574312
1743286183621999872,0.0227243974804878,0.00175014964770526,-0.0034824307076633,-0.07031383130942498,9.710530227915697,-0.4177240687249053
1743286183628160000,0.0244697276502848,4.82044697491801e-06,-0.0034824307076633,-0.06390683855726363,9.704199873464942,-0.43057505920871797
1743286183634340096,0.0157430805265903,0.00175014964770526,-0.00173710158560425,-0.057470040957313506,9.68111692821854,-0.44407765527109744
1743286183640530176,0.0105070928111672,0.00175014964770526,0.008734873495996,-0.05102164695487203,9.655821248629367,-0.4576814132077351
1743286183646729984,0.00352577609010041,0.00698613747954369,8.22767106001265e-06,-0.04456306983976637,9.63048562285281,-0.4713066537956612
1743286183652950016,-0.0017102116253227,0.00698613747954369,0.00349888624623418,-0.047378266328325924,9.66052266351975,-0.4870992634339531
1743286183659190016,-0.00345554086379707,0.00349547900259495,8.22767106001265e-06,-0.05373759898692243,9.711746983616385,-0.5037495054431674
1743286183665440000,-0.00520086986944079,0.00524080824106932,-0.00522775994613767,-0.060107379884259564,9.763055464104436,-0.5204271034208365
1743286183671709952,-0.00694619910791516,0.00873146671801805,8.22767106001265e-06,-0.0663846518905023,9.760188818060865,-0.5216181787687163
1743286183677989888,-0.0174181740731001,0.00175014964770526,0.00175355689134449,-0.07258604472922724,9.715890642058733,-0.5109639787798108
1743286183684290048,-0.00694619910791516,0.00524080824106932,0.00349888624623418,-0.07880721421937407,9.671451196247027,-0.5002758018433325
1743286183690599936,0.00527110556140542,0.00175014964770526,0.00524421548470855,-0.09537023294526747,9.67921329401527,-0.5001629445894824
1743286183696930048,0.0122524220496416,0.00524080824106932,0.00524421548470855,-0.12697117943190261,9.762815001318394,-0.515412692496205
1743286183703279872,0.0227243974804878,0.00349547900259495,-0.0034824307076633,-0.1586721063142017,9.846681211198298,-0.5307106881929149
1743286183709639936,0.0157430805265903,0.00175014964770526,8.22767106001265e-06,-0.18712647276065897,9.885756984713439,-0.5353272186800818
1743286183716020224,0.0157430805265903,0.00524080824106932,-0.00522775994613767,-0.20583242984648073,9.790891484504053,-0.5080092289708171
1743286183722409984,0.00701643479987979,0.00524080824106932,8.22767106001265e-06,-0.2245670470309766,9.695880637302569,-0.4806493843445837
1743286183728809984,0.00178044685162604,0.00524080824106932,8.22767106001265e-06,-0.2421984751738494,9.615315569962938,-0.4555260387730674
1743286183735239936,3.51176349795423e-05,-0.00174050882924348,0.00349888624623418,-0.24870202640687689,9.678779584075485,-0.45284317226749315
1743286183741669888,0.0105070928111672,0.00349547900259495,0.00524421548470855,-0.25520557763990437,9.742243598188033,-0.4501603057619189
1743286183748130048,0.0279603861272335,-0.00348583795130253,8.22767106001265e-06,-0.2617397548140715,9.80600647135328,-0.44746480534162003
1743286183754599936,0.0297057144343853,-0.00348583795130253,8.22767106001265e-06,-0.2735918844224963,9.75191901485634,-0.46727368842112194
1743286183761080064,0.0436683483421803,4.82044697491801e-06,8.22767106001265e-06,-0.28584071293178337,9.689340677538905,-0.4887176178244831
1743286183767580160,0.0401776917278767,-0.00348583795130253,0.00349888624623418,-0.29812739793302306,9.626568934270749,-0.5102278222957233
1743286183773730048,0.034941703081131,-0.00174050882924348,0.00524421548470855,-0.3055772045195794,9.642919772530686,-0.5623165587675999
1743286183779789824,0.020979069173336,-0.0052311671897769,0.00524421548470855,-0.31163703293062295,9.682265734369322,-0.623377530072207
1743286183785850112,0.0174884106963873,-0.00174050882924348,0.00175355689134449,-0.31769709975801824,9.721613244225498,-0.6844409037441785
1743286183791919872,0.00352577609010041,4.82044697491801e-06,0.00175355689134449,-0.3044636641975559,9.72456788468744,-0.7103715931015299
1743286183797980160,-0.019163504242897,-0.00174050882924348,8.22767106001265e-06,-0.2792442010979788,9.70484060159661,-0.7143454494823138
1743286183804059904,-0.0278901495039463,-0.00174050882924348,8.22767106001265e-06,-0.2539423863012869,9.685048900986834,-0.7183322821035418
1743286183810129920,-0.033126138150692,4.82044697491801e-06,8.22767106001265e-06,-0.2287960449469438,9.665055677715246,-0.7079911264453156
1743286183816209920,-0.0348714664578438,0.00349547900259495,8.22767106001265e-06,-0.20374213726073334,9.64475114996643,-0.6806552248779513
1743286183822299904,-0.0278901495039463,0.00698613747954369,0.00349888624623418,-0.17864794998017208,9.624413978282327,-0.653275374915784
1743286183828389888,-0.0313808061182499,0.00349547900259495,8.22767106001265e-06,-0.15553177837150056,9.626823898600271,-0.6240155223732768
1743286183834480128,-0.0366167947649956,0.00698613747954369,8.22767106001265e-06,-0.13705608099545905,9.682609567313781,-0.5903431311013988
1743286183840580096,-0.0296354778110981,0.00873146671801805,-0.0034824307076633,-0.11855072876534542,9.738484776131319,-0.5566166931632921
1743286183846679808,-0.0226541608572006,0.00349547900259495,-0.0034824307076633,-0.10175713648254432,9.780279592228416,-0.5226181999332186
1743286183852790016,-0.0174181740731001,4.82044697491801e-06,-0.00522775994613767,-0.09552614815804254,9.735027866143815,-0.4868793333177746
1743286183858899968,-0.00694619910791516,0.00698613747954369,8.22767106001265e-06,-0.08929540296559652,9.689777905773516,-0.4511418612265469
1743286183865009920,-0.0017102116253227,0.0104767959564924,8.22767106001265e-06,-0.0830646577731505,9.644527945403215,-0.41540438913531924
1743286183871130112,0.00527110556140542,-0.00174050882924348,0.00175355689134449,-0.0800458130503359,9.705882925350362,-0.41829016251831913
1743286183877250048,0.00527110556140542,0.00349547900259495,8.22767106001265e-06,-0.07708589381305617,9.769188836162579,-0.42188334295231456
1743286183883379968,-0.0017102116253227,0.00349547900259495,-0.00522775994613767,-0.07412113151184854,9.832598329048661,-0.4254824026016369
1743286183889509888,-0.0174181740731001,0.00175014964770526,0.00175355689134449,-0.07081054436044859,9.779397950013875,-0.4129809422201631
1743286183895649792,-0.0348714664578438,4.82044697491801e-06,8.22767106001265e-06,-0.06741963111097592,9.70084876887949,-0.3969711078054192
1743286183901410048,-0.0313808061182499,0.00349547900259495,8.22767106001265e-06,-0.06423846914509777,9.62715839431316,-0.38195159165350634
1743286183907180032,-0.0174181740731001,0.00524080824106932,0.00175355689134449,-0.05914289507902906,9.64855604024003,-0.37494254116853043
1743286183912940032,-0.019163504242897,0.00175014964770526,0.00349888624623418,-0.053090857582168596,9.718061735405847,-0.3720090933188821
1743286183918690048,-0.0174181740731001,0.00349547900259495,0.008734873495996,-0.04704934144690704,9.787446596133279,-0.36908074521714074
1743286183924439808,0.0105070928111672,-0.0052311671897769,0.00524421548470855,-0.05339899453280461,9.800091126705114,-0.38754688972139556
1743286183930190080,0.0419230200350285,-0.00348583795130253,0.00175355689134449,-0.07192766439932702,9.75696852302288,-0.42704153724644917
1743286183935930112,0.0750842690467834,-0.00348583795130253,8.22767106001265e-06,-0.09042329948666955,9.71392280266258,-0.46646576973528175
1743286183941669888,0.0820655897259712,-0.00348583795130253,0.00524421548470855,-0.10466474237998812,9.697053513627305,-0.5026249457464407
1743286183947410176,0.0768296048045158,4.82044697491801e-06,0.008734873495996,-0.11088892773774074,9.729518078201696,-0.5326319924349846
1743286183953139968,0.0576309822499752,0.00524080824106932,0.00175355689134449,-0.1171019966321945,9.761924660707775,-0.5625854462091073
1743286183958870016,0.0419230200350285,4.82044697491801e-06,0.00524421548470855,-0.12446772908475011,9.776504555419962,-0.5874417784145093
1743286183964600064,0.0244697276502848,0.00175014964770526,-0.0034824307076633,-0.13685376504782268,9.713447554430363,-0.5901005293860508
1743286183970319872,0.00701643479987979,0.00349547900259495,-0.0034824307076633,-0.14921764075682134,9.650503370743028,-0.592754523500982
1743286183976039936,-0.00694619910791516,0.00349547900259495,8.22767106001265e-06,-0.1619698149299389,9.590579197064514,-0.5949072473458126
1743286183981750016,-0.0174181740731001,0.00349547900259495,0.00175355689134449,-0.1873556862214906,9.629186117319936,-0.580718805476129
1743286183987459840,-0.0261448211967945,0.00349547900259495,0.00349888624623418,-0.21274049756016997,9.667791425595391,-0.56653095602573
1743286183993169920,-0.0156728439033031,0.00175014964770526,8.22767106001265e-06,-0.23812636885172167,9.706398345850813,-0.5523425141560464
1743286183998870016,0.00178044685162604,4.82044697491801e-06,8.22767106001265e-06,-0.24691124766354924,9.716937002406878,-0.5448198347629668
1743286184004570112,0.0122524220496416,0.00524080824106932,0.00175355689134449,-0.2532645054672255,9.723363057489257,-0.5382722983074871
1743286184010260224,0.0122524220496416,0.00175014964770526,0.00175355689134449,-0.25960660228596977,9.72977782370124,-0.5317362641328813
1743286184015880192,0.013997751288116,0.00349547900259495,0.00349888624623418,-0.26140294614940995,9.722590547893407,-0.5302343033468762
1743286184021459968,0.0157430805265903,0.00524080824106932,8.22767106001265e-06,-0.2613589248039336,9.709922662925395,-0.530769388602113
1743286184027040000,0.00701643479987979,0.00698613747954369,0.00524421548470855,-0.2613149034584572,9.697254777957383,-0.5313044738573499
1743286184032610048,0.0105070928111672,0.00524080824106932,0.00524421548470855,-0.2509013710443671,9.715899490490484,-0.5339955803799371
1743286184038170112,0.0157430805265903,4.82044697491801e-06,0.00524421548470855,-0.23213717682026233,9.759764448730024,-0.5384227892071657
1743286184043729920,0.0174884106963873,0.00175014964770526,-0.0034824307076633,-0.21337378720120126,9.803627526048585,-0.5428498081965304
1743286184049280000,0.0157430805265903,0.00175014964770526,-0.00522775994613767,-0.19945998342837581,9.79617854241942,-0.5420048956189821
1743286184054830080,0.013997751288116,4.82044697491801e-06,8.22767106001265e-06,-0.1929350079923072,9.710116439212241,-0.5330828479625721
1743286184060369920,0.0174884106963873,0.00524080824106932,8.22767106001265e-06,-0.18642208521931478,9.624213306340469,-0.5241772807412849
1743286184065910016,0.013997751288116,-0.0052311671897769,0.008734873495996,-0.177019088585222,9.57883015840299,-0.520985094481254
1743286184071439872,0.00876176357269287,4.82044697491801e-06,0.00349888624623418,-0.15832032726471787,9.66412984727617,-0.5362130125065777
1743286184076960000,-0.0017102116253227,4.82044697491801e-06,0.00349888624623418,-0.13965461971735077,9.749278752013634,-0.5514140121633995
1743286184082479872,-0.0174181740731001,0.00524080824106932,8.22767106001265e-06,-0.12192276074709477,9.823557969412105,-0.5642087988511613
1743286184087990016,-0.0139275165274739,0.00349547900259495,0.00349888624623418,-0.11553596859574683,9.765949147361363,-0.5478121983223584
1743286184093499904,-0.0121821872889996,4.82044697491801e-06,0.00524421548470855,-0.10914945279731096,9.70834281801202,-0.5314163072652585
1743286184099000064,3.51176349795423e-05,0.00175014964770526,0.00524421548470855,-0.10277426746827087,9.65083868942007,-0.5150495045479829
1743286184104499968,0.00178044685162604,4.82044697491801e-06,0.00175355689134449,-0.08504089892008262,9.68044173084319,-0.5064974270128835
1743286184109989888,3.51176349795423e-05,0.00524080824106932,0.00698954472318292,-0.06633004344941695,9.717739547713023,-0.4986565690957066
1743286184115469824,-0.0174181740731001,4.82044697491801e-06,0.00175355689134449,-0.04765250445031808,9.754970952244994,-0.49082967257758314
1743286184120950016,-0.0296354778110981,0.00175014964770526,0.00175355689134449,-0.050337648976011694,9.749572824721033,-0.48475965309219676
1743286184126390016,-0.0243994910269976,4.82044697491801e-06,0.00349888624623418,-0.05973291407648619,9.73078484979395,-0.47928745756702984
1743286184131830016,3.51176349795423e-05,0.00175014964770526,0.00349888624623418,-0.06912817917696068,9.711996874866868,-0.473815262041863
1743286184137260032,0.0331963747739792,-0.00348583795130253,8.22767106001265e-06,-0.06704467963095796,9.704795381151143,-0.49802907887019576
1743286184142679808,0.0942828953266144,4.82044697491801e-06,0.00175355689134449,-0.05734928907969784,9.705282986690365,-0.5419168325067247
1743286184148099840,0.137916132807732,4.82044697491801e-06,8.22767106001265e-06,-0.04765389852843774,9.705770592229587,-0.5858045861432536
1743286184153510144,0.137916132807732,4.82044697491801e-06,8.22767106001265e-06,-0.053237119458996306,9.69555215697014,-0.631527760387802
1743286184158909952,0.0960282236337662,4.82044697491801e-06,0.00175355689134449,-0.07805628015496696,9.671852304903684,-0.6795788510252169
1743286184164310016,0.020979069173336,0.00175014964770526,8.22767106001265e-06,-0.10287544085093761,9.648152452837229,-0.7276299416626317
1743286184169699840,-0.0540700890123844,0.00524080824106932,8.22767106001265e-06,-0.11892031006624815,9.62904826682217,-0.7451317293614556
1743286184175090176,-0.092467337846756,0.00524080824106932,0.0104802027344704,-0.11294362064148297,9.621427662096426,-0.685780245119272
1743286184180470016,-0.0994486510753632,0.0104767959564924,0.00524421548470855,-0.10697829877002925,9.613821551620646,-0.6265416463080162
1743286184185839872,-0.0819953605532646,0.00698613747954369,0.008734873495996,-0.10262586478783436,9.61738407912346,-0.5680869635377627
1743286184191209984,-0.0558154173195362,0.00524080824106932,0.00524421548470855,-0.10951074065372743,9.699202296089542,-0.514355794841379
1743286184196569856,-0.0278901495039463,0.00524080824106932,0.008734873495996,-0.11638247277684687,9.780864315962322,-0.4607272029632312
1743286184201920000,3.51176349795423e-05,0.00524080824106932,8.22767106001265e-06,-0.12324167249406585,9.862377403722885,-0.4071964168885176
1743286184207269888,0.0314510427415371,4.82044697491801e-06,8.22767106001265e-06,-0.13539280270151338,9.810533172269716,-0.41983917841249824
1743286184212610048,0.0576309822499752,-0.00348583795130253,8.22767106001265e-06,-0.14770566063114046,9.754149004631264,-0.4347585969543192
1743286184217950208,0.0925375670194626,4.82044697491801e-06,8.22767106001265e-06,-0.16001851856076754,9.697764836992812,-0.44967801549614017
1743286184223279872,0.113481514155865,4.82044697491801e-06,0.00349888624623418,-0.17233820172559933,9.708759284420518,-0.5023995014334208
1743286184228600064,0.113481514155865,4.82044697491801e-06,8.22767106001265e-06,-0.1846424862074571,9.7356241926066,-0.5639606747932984
1743286184233920000,0.103009536862373,4.82044697491801e-06,8.22767106001265e-06,-0.19694677068931485,9.762489100792681,-0.6255218481531758
1743286184239229952,0.0750842690467834,4.82044697491801e-06,-0.00173710158560425,-0.20095296932815562,9.724912333712645,-0.6714567362228587
1743286184244539904,0.0419230200350285,-0.00174050882924348,0.00175355689134449,-0.20049830448393136,9.652618730322743,-0.7090328959806043
1743286184249850112,0.00876176357269287,0.00175014964770526,0.00175355689134449,-0.20004363963970712,9.580325126932841,-0.7466090557383498
1743286184255140096,-0.0313808061182499,0.00349547900259495,0.00524421548470855,-0.19381490512388097,9.56968097068358,-0.7475857549290023
1743286184260430080,-0.08723134547472,0.00349547900259495,8.22767106001265e-06,-0.18161018013555946,9.622541106031106,-0.7108409793864626
1743286184265719808,-0.108175300061703,0.00175014964770526,0.00524421548470855,-0.1694060052069544,9.675398859003682,-0.6740978599091629
1743286184270999808,-0.109920628368855,0.00698613747954369,0.00698954472318292,-0.15926445365269984,9.716670091087387,-0.6389074045722539
1743286184276269824,-0.0819953605532646,4.82044697491801e-06,0.00524421548470855,-0.15321453944427973,9.734928942339208,-0.6067475873110889
1743286184281539840,-0.0226541608572006,-0.00174050882924348,8.22767106001265e-06,-0.14716462523585963,9.753187793591026,-0.5745877700499238
1743286184286799872,0.034941703081131,4.82044697491801e-06,0.00175355689134449,-0.1421599361213425,9.766025673082975,-0.5526990175514609
1743286184292049920,0.0803202614188194,4.82044697491801e-06,8.22767106001265e-06,-0.14196960925773036,9.753803382714782,-0.5783084060538907
1743286184297300224,0.11871749907732,4.82044697491801e-06,8.22767106001265e-06,-0.14177927375075472,9.741580537292531,-0.6039189575621562
1743286184302540032,0.139661461114883,4.82044697491801e-06,-0.00173710158560425,-0.14147586740257273,9.728785142219886,-0.6299932044991003
1743286184307780096,0.127444162964821,4.82044697491801e-06,-0.00173710158560425,-0.1346900321495016,9.681908777152326,-0.685422004556865
1743286184312999936,0.0855562463402748,-0.00174050882924348,8.22767106001265e-06,-0.1279301323847032,9.635211573731219,-0.7406389555289599
1743286184318230016,0.0366870313882828,0.00175014964770526,-0.00173710158560425,-0.12115726487576842,9.588424789486885,-0.7959618310438895
1743286184323440128,-0.0156728439033031,4.82044697491801e-06,8.22767106001265e-06,-0.10935337904929883,9.581644581444312,-0.8090942839182781
1743286184328649984,-0.0505794286727905,4.82044697491801e-06,0.00524421548470855,-0.09672608900445043,9.581354625308311,-0.8153856147300894
1743286184333859840,-0.0627967342734337,4.82044697491801e-06,0.00175355689134449,-0.08409879895960204,9.581064669172312,-0.8216769455419007
1743286184339059968,-0.0540700890123844,0.00175014964770526,8.22767106001265e-06,-0.07826230049474965,9.609690882349797,-0.8179411273675348
1743286184344270080,-0.0366167947649956,-0.00174050882924348,8.22767106001265e-06,-0.07529433886548907,9.650674963945637,-0.8099365985488894
1743286184349479936,-0.0104368580505252,0.00349547900259495,8.22767106001265e-06,-0.0723263772362285,9.691659045541476,-0.8019320697302441
1743286184354680064,-0.0017102116253227,4.82044697491801e-06,-0.00173710158560425,-0.07267134869496913,9.696549932756978,-0.7920455025402359
1743286184359879936,0.00701643479987979,4.82044697491801e-06,-0.00173710158560425,-0.07580763890416888,9.671043722668298,-0.7805583190443803
1743286184365070080,0.013997751288116,0.00175014964770526,8.22767106001265e-06,-0.07893803329041688,9.64558546098006,-0.7690927299787553
1743286184370249984,0.013997751288116,4.82044697491801e-06,8.22767106001265e-06,-0.07845798025520982,9.634736177941647,-0.7618443612032384
1743286184375430144,0.0174884106963873,4.82044697491801e-06,0.00349888624623418,-0.07220053989740523,9.647222887240815,-0.7613192443001612
1743286184380600064,0.0227243974804878,4.82044697491801e-06,8.22767106001265e-06,-0.06595548366697145,9.659684884039414,-0.7607951666582259
1743286184385769984,0.0244697276502848,4.82044697491801e-06,-0.00173710158560425,-0.06111691443567211,9.661351458104978,-0.7571665833714373
1743286184390929920,0.020979069173336,4.82044697491801e-06,-0.00173710158560425,-0.061087178574833235,9.626183983647097,-0.7429541996923246
1743286184396080128,3.51176349795423e-05,4.82044697491801e-06,8.22767106001265e-06,-0.06105749904752612,9.591083132719978,-0.7287687408690867
1743286184401230080,-0.0243994910269976,4.82044697491801e-06,0.00175355689134449,-0.06148547738095296,9.56244543186053,-0.7132374238442916
1743286184406370048,-0.0488341003656387,0.00698613747954369,0.00175355689134449,-0.06817669355756799,9.622327662266361,-0.679315890539865
1743286184411510016,-0.0627967342734337,4.82044697491801e-06,0.00349888624623418,-0.07486822011623036,9.682212670398807,-0.6453927837344966
1743286184416640000,-0.0627967342734337,0.00175014964770526,8.22767106001265e-06,-0.08154671062890433,9.741981014013346,-0.6115357639686858
1743286184421760000,-0.0453434400260448,4.82044697491801e-06,8.22767106001265e-06,-0.08798710524553387,9.741344335756885,-0.5859131580156874
1743286184426880000,-0.0209088325500488,-0.00348583795130253,-0.00173710158560425,-0.09440498977731712,9.734758089997037,-0.5610978420283212
1743286184431990016,-0.0017102116253227,-0.00174050882924348,-0.0034824307076633,-0.10081062073427485,9.728184419261689,-0.5363299055676142
1743286184437100032,0.0157430805265903,4.82044697491801e-06,8.22767106001265e-06,-0.10702488520545525,9.712619864221562,-0.5401082454733936
1743286184442200064,0.0157430805265903,-0.00174050882924348,-0.00173710158560425,-0.11316313799174253,9.694086714277176,-0.5534013813484331
1743286184447330048,3.51176349795423e-05,4.82044697491801e-06,8.22767106001265e-06,-0.11933754709849506,9.675444398006157,-0.5667728181500423
1743286184452450048,-0.0243994910269976,-0.00348583795130253,8.22767106001265e-06,-0.13306727921441994,9.675717019166123,-0.571883940218739
1743286184457570048,-0.0453434400260448,4.82044697491801e-06,-0.0034824307076633,-0.1520165888161269,9.689011070612784,-0.5713155341073056
1743286184462680064,-0.057560745626688,-0.00174050882924348,8.22767106001265e-06,-0.1709288380684382,9.702279122051959,-0.570748239663238
1743286184467780096,-0.0435981117188931,4.82044697491801e-06,8.22767106001265e-06,-0.18163382513683574,9.712529762027641,-0.5703113925935759
1743286184472879872,-0.0226541608572006,-0.00174050882924348,8.22767106001265e-06,-0.18165585363102565,9.718868681893305,-0.5700436711043011
1743286184477979904,-0.0017102116253227,0.00175014964770526,8.22767106001265e-06,-0.1816778831550657,9.725207898108657,-0.5697759370988276
1743286184483069952,0.00876176357269287,4.82044697491801e-06,8.22767106001265e-06,-0.1817039029984018,9.729763371398287,-0.5678543571144605
1743286184488149760,0.0157430805265903,4.82044697491801e-06,8.22767106001265e-06,-0.18174048214240526,9.72965041069762,-0.5615846606850411
1743286184493230080,0.00876176357269287,4.82044697491801e-06,-0.00522775994613767,-0.18177706300317523,9.729537444695374,-0.5553146700003802
1743286184498300160,-0.0104368580505252,0.00524080824106932,8.22767106001265e-06,-0.1818092731742977,9.72570343117178,-0.5477486255341438
1743286184503360000,-0.0261448211967945,0.00524080824106932,8.22767106001265e-06,-0.1818088626779317,9.693681166427252,-0.5302815522003956
1743286184508420096,-0.0418527834117413,0.00524080824106932,8.22767106001265e-06,-0.18180845218156566,9.661658901682722,-0.5128144788666474
1743286184513479936,-0.0523247607052326,0.00524080824106932,-0.00173710158560425,-0.18180804168519965,9.629636636938192,-0.4953474055328992
1743286184518529792,-0.0523247607052326,0.00524080824106932,8.22767106001265e-06,-0.18208952498660808,9.688893017936216,-0.48002488515400754
1743286184523570176,-0.0488341003656387,-0.00174050882924348,8.22767106001265e-06,-0.18238267361836788,9.751985686808245,-0.46482341858714954
1743286184528610048,-0.0383621267974377,0.00175014964770526,8.22767106001265e-06,-0.18267580838311576,9.815075371164244,-0.44962267110574883
1743286184533649920,-0.0243994910269976,-0.0052311671897769,8.22767106001265e-06,-0.1775693203881183,9.802237622533431,-0.4526855575954907
1743286184538670080,-0.00345554086379707,4.82044697491801e-06,-0.00173710158560425,-0.1711350155539968,9.77049709019713,-0.46029543054357475
1743286184543689984,0.00701643479987979,0.00349547900259495,8.22767106001265e-06,-0.16470101630046205,9.738758065294926,-0.4679049420805196
1743286184548710144,0.0105070928111672,0.00349547900259495,8.22767106001265e-06,-0.15434827291209224,9.739407165184794,-0.4781428735357389
1743286184553760000,0.0227243974804878,0.00175014964770526,-0.00522775994613767,-0.14173061671982806,9.758273761129926,-0.48991941756300805
1743286184558810112,0.020979069173336,0.00175014964770526,8.22767106001265e-06,-0.12911296052756388,9.777140357075057,-0.5016959615902772
1743286184563849984,0.0331963747739792,4.82044697491801e-06,-0.00173710158560425,-0.12249964835455057,9.768603333379053,-0.5176448498042031
1743286184568890112,0.0436683483421803,-0.0052311671897769,-0.00173710158560425,-0.12225768804105365,9.730904031155713,-0.5380654939964636
1743286184573929984,0.0489043369889259,4.82044697491801e-06,8.22767106001265e-06,-0.12201573917317231,9.693206512248466,-0.5584851722169081
1743286184578949888,0.0489043369889259,4.82044697491801e-06,8.22767106001265e-06,-0.1218173654270341,9.667959472494317,-0.5783273130998239
1743286184583980032,0.0366870313882828,-0.00348583795130253,0.00175355689134449,-0.1217074047925771,9.668298755814398,-0.5971753565484246
1743286184588999936,0.0192337408661842,4.82044697491801e-06,8.22767106001265e-06,-0.1215976682697554,9.66863734763847,-0.6159849856511969
1743286184594010112,0.00527110556140542,0.00175014964770526,8.22767106001265e-06,-0.12044336315785813,9.66890375071995,-0.6326643229034558
1743286184599010048,-0.00520086986944079,0.00175014964770526,8.22767106001265e-06,-0.11411666116289783,9.668815326777016,-0.6389397067579007
1743286184604020224,-0.00694619910791516,0.00175014964770526,8.22767106001265e-06,-0.10777698657789495,9.668726721525154,-0.6452279579770751
1743286184609009920,3.51176349795423e-05,0.00349547900259495,-0.00173710158560425,-0.10151369919455504,9.668741942560711,-0.6514865759077426
1743286184614010112,0.00701643479987979,0.00175014964770526,-0.00173710158560425,-0.10152120194129187,9.68156975550982,-0.6572382336255541
1743286184618989824,0.0174884106963873,0.00349547900259495,8.22767106001265e-06,-0.10152867427922303,9.694345577037,-0.6629665797418963
1743286184623970048,0.0297057144343853,0.00524080824106932,8.22767106001265e-06,-0.10153614697490485,9.707122010227966,-0.6686952001123735
1743286184628950016,0.0366870313882828,0.00175014964770526,-0.00173710158560425,-0.10143730711556821,9.698403590208844,-0.68069591236549
1743286184633920000,0.0262150578200817,4.82044697491801e-06,8.22767106001265e-06,-0.10132015324885808,9.685959152853114,-0.6937643904657009
1743286184638889984,0.0174884106963873,0.00175014964770526,-0.0034824307076633,-0.10120299376190968,9.673514118498709,-0.7068334955017765
1743286184643849984,0.0122524220496416,0.00524080824106932,-0.00173710158560425,-0.09683460726574894,9.660648493471312,-0.70253791074284
1743286184648800000,-0.00694619910791516,4.82044697491801e-06,8.22767106001265e-06,-0.09060075697923504,9.647612964616867,-0.6906066293710496
1743286184653799936,-0.0139275165274739,0.00175014964770526,8.22767106001265e-06,-0.08430355028356676,9.63444495194236,-0.6785540869632085
1743286184658790144,-0.0139275165274739,0.00175014964770526,8.22767106001265e-06,-0.08480693973674047,9.64888518673587,-0.675455372993319
1743286184663769856,-0.0156728439033031,4.82044697491801e-06,8.22767106001265e-06,-0.0911953719392668,9.687212873982476,-0.6801062435710358
1743286184668750080,3.51176349795423e-05,4.82044697491801e-06,-0.0034824307076633,-0.09758410999865157,9.725542396231106,-0.684757336816947
1743286184673729792,0.0105070928111672,0.00349547900259495,-0.00173710158560425,-0.10148868859110889,9.732659201510499,-0.690733376216507
1743286184678700032,0.00701643479987979,4.82044697491801e-06,8.22767106001265e-06,-0.10129788283675716,9.688397760777725,-0.6988785377229362
1743286184683670016,3.51176349795423e-05,-0.00348583795130253,8.22767106001265e-06,-0.1011070770824054,9.644136320044952,-0.7070236992293655
1743286184688630016,-0.00345554086379707,4.82044697491801e-06,8.22767106001265e-06,-0.10099881489453377,9.616591410024446,-0.7103139305588384
1743286184693590016,-0.0261448211967945,4.82044697491801e-06,-0.00173710158560425,-0.1011822339799359,9.648077184202586,-0.6964266035834694
1743286184698540032,-0.0435981117188931,4.82044697491801e-06,-0.00173710158560425,-0.10136529157024111,9.679500904026007,-0.6825666467184687
1743286184703490048,-0.0540700890123844,4.82044697491801e-06,-0.0034824307076633,-0.10193078214353028,9.708998560972907,-0.6676415320293329
1743286184708430080,-0.0558154173195362,4.82044697491801e-06,-0.00173710158560425,-0.10841236561210922,9.70863532436634,-0.6362658369114388
1743286184713370112,-0.0523247607052326,0.00349547900259495,-0.00173710158560425,-0.11489394908068815,9.708272087759774,-0.6048901417935447
1743286184718300160,-0.0366167947649956,4.82044697491801e-06,8.22767106001265e-06,-0.12136239420439833,9.707909587443625,-0.5735780460576464
1743286184723229952,-0.019163504242897,0.00175014964770526,0.00175355689134449,-0.1278061301692299,9.725032885941234,-0.558464218482963
1743286184728150016,-0.0104368580505252,4.82044697491801e-06,8.22767106001265e-06,-0.13423446293950722,9.74400441502291,-0.5451237918503676
1743286184733069824,3.51176349795423e-05,0.00349547900259495,-0.00173710158560425,-0.14066279570978457,9.762975944104587,-0.5317833652177723
1743286184737989888,3.51176349795423e-05,4.82044697491801e-06,-0.00173710158560425,-0.14690972691256207,9.749167115051826,-0.5338315567438225
1743286184742899968,-0.00520086986944079,-0.00348583795130253,8.22767106001265e-06,-0.15308161854876,9.724123828588452,-0.5411627479023636
1743286184747800064,-0.0121821872889996,-0.00174050882924348,-0.00173710158560425,-0.15924122274409733,9.699130400081037,-0.5484793436040969
1743286184752729856,-0.0174181740731001,4.82044697491801e-06,8.22767106001265e-06,-0.16186156592318757,9.696080076032288,-0.5438409302475096
1743286184757669888,-0.0226541608572006,4.82044697491801e-06,8.22767106001265e-06,-0.16197868544055466,9.708521115155913,-0.5307760962391485
1743286184762609920,-0.0243994910269976,4.82044697491801e-06,-0.00173710158560425,-0.16209580495792175,9.720962154279537,-0.5177112622307873
1743286184767549952,-0.0209088325500488,4.82044697491801e-06,-0.00173710158560425,-0.16214724981568482,9.728137668337707,-0.5129095064481121
1743286184772480000,-0.0209088325500488,4.82044697491801e-06,8.22767106001265e-06,-0.1621106832719817,9.728250604697715,-0.5191778141436755
1743286184777410048,-0.0209088325500488,-0.00174050882924348,0.00175355689134449,-0.16207411672827857,9.728363541057725,-0.525446121839239
1743286184782330112,-0.0209088325500488,0.00175014964770526,-0.00173710158560425,-0.15866591343540584,9.72833779459725,-0.5300290171792705
1743286184787249920,-0.0209088325500488,0.00175014964770526,0.00175355689134449,-0.14606329715581007,9.72793449560899,-0.530050633279466
1743286184792160000,-0.0139275165274739,0.00175014964770526,0.00175355689134449,-0.13348633070581994,9.727532017446348,-0.5300722053848849
1743286184797070080,-0.0017102116253227,4.82044697491801e-06,0.00175355689134449,-0.12229344737814336,9.728583381762657,-0.5307234372971542
1743286184801979904,0.00701643479987979,4.82044697491801e-06,8.22767106001265e-06,-0.12230094354224798,9.74139963737991,-0.5364700487236669
1743286184806880000,0.0227243974804878,4.82044697491801e-06,8.22767106001265e-06,-0.12230842441845843,9.7541897551543,-0.5422049403444149
1743286184811769856,0.0419230200350285,4.82044697491801e-06,8.22767106001265e-06,-0.12231589000677473,9.766953735085828,-0.5479281121593986
1743286184816669952,0.0436683483421803,4.82044697491801e-06,8.22767106001265e-06,-0.12214119645563822,9.737505941379212,-0.5614508031988822
1743286184821549824,0.0419230200350285,0.00349547900259495,8.22767106001265e-06,-0.1219582783393075,9.706106060886917,-0.5753003405965059
1743286184826440192,0.034941703081131,-0.00174050882924348,8.22767106001265e-06,-0.1217749759412198,9.674640214259133,-0.5891789736609313
1743286184831310080,0.020979069173336,-0.00348583795130253,8.22767106001265e-06,-0.11668690295066109,9.678379875644065,-0.6065346309734256
1743286184836189952,0.0157430805265903,0.00349547900259495,8.22767106001265e-06,-0.11031827804979462,9.691208515861627,-0.6248411017734813
1743286184841059840,0.00352577609010041,0.00349547900259495,-0.00173710158560425,-0.10396272146267821,9.704010831920055,-0.6431100079959717
1743286184845920000,3.51176349795423e-05,4.82044697491801e-06,8.22767106001265e-06,-0.1056046473336651,9.696727413404071,-0.6462953355226145
1743286184850830080,3.51176349795423e-05,4.82044697491801e-06,8.22767106001265e-06,-0.11188391206130792,9.677761219625381,-0.6408061570327247
1743286184855740160,3.51176349795423e-05,0.00524080824106932,-0.00173710158560425,-0.11816317678895073,9.658795025846693,-0.635316978542835
1743286184860640000,0.00352577609010041,4.82044697491801e-06,8.22767106001265e-06,-0.11842293086065679,9.658011642732257,-0.6380730211037569
1743286184865540096,0.013997751288116,0.00349547900259495,-0.00173710158560425,-0.11211172347915796,9.677076810686856,-0.6498365766516235
1743286184870429952,0.0174884106963873,4.82044697491801e-06,8.22767106001265e-06,-0.10581341366042785,9.69610301712656,-0.6615760922358366
1743286184875320064,0.020979069173336,0.00175014964770526,-0.0034824307076633,-0.10150184832516587,9.698832841284883,-0.6699767892782704
1743286184880209920,0.0174884106963873,0.00175014964770526,-0.00173710158560425,-0.10139156118767062,9.667101447027374,-0.671317038607071
1743286184885090048,0.00876176357269287,0.00349547900259495,8.22767106001265e-06,-0.10128149451690562,9.635433484616017,-0.6726546087441367
1743286184889959936,-0.00520086986944079,0.00349547900259495,8.22767106001265e-06,-0.10120970483855242,9.61305318353794,-0.6725821214426737
1743286184894840064,-0.0104368580505252,4.82044697491801e-06,8.22767106001265e-06,-0.10133462267751217,9.638338547457813,-0.6652281528039681
1743286184899709952,-0.0121821872889996,4.82044697491801e-06,8.22767106001265e-06,-0.10145928418711701,9.663572026226003,-0.6578892743881873
1743286184904570112,-0.0156728439033031,4.82044697491801e-06,-0.0034824307076633,-0.10158348437473937,9.688650154822872,-0.6505436160159033
1743286184909430016,-0.0174181740731001,4.82044697491801e-06,8.22767106001265e-06,-0.10165666366331244,9.688424456130655,-0.6379998522365099
1743286184914289920,-0.00520086986944079,4.82044697491801e-06,-0.00173710158560425,-0.10172984295188552,9.688198757438435,-0.6254560884571165
1743286184919140096,-0.0017102116253227,0.00349547900259495,8.22767106001265e-06,-0.10180287504899316,9.687973512712386,-0.6129375549718241
1743286184923990016,-0.00345554086379707,0.00524080824106932,-0.0034824307076633,-0.10176457822241126,9.682671251380668,-0.6165337395170558
1743286184928839936,-0.00520086986944079,4.82044697491801e-06,8.22767106001265e-06,-0.10170592213698532,9.676440499495516,-0.6230768830003481
1743286184933680128,-0.0226541608572006,-0.00348583795130253,8.22767106001265e-06,-0.10164738427491511,9.670222305904895,-0.6296068385531118
1743286184938520064,-0.0296354778110981,4.82044697491801e-06,8.22767106001265e-06,-0.10603879519802945,9.67698282833468,-0.6226453934222024
1743286184943350016,-0.0348714664578438,4.82044697491801e-06,8.22767106001265e-06,-0.11243498243953934,9.689602558587286,-0.6095931582102078
1743286184948179968,-0.0348714664578438,-0.00348583795130253,8.22767106001265e-06,-0.11883085396027124,9.702221665920186,-0.5965415672666969
1743286184953059840,-0.033126138150692,4.82044697491801e-06,8.22767106001265e-06,-0.12190368818584037,9.704754221304091,-0.5838264782027217
1743286184957929984,-0.0278901495039463,0.00524080824106932,8.22767106001265e-06,-0.12195479982107116,9.698191094754788,-0.5715566281089044
1743286184962800128,-0.0209088325500488,4.82044697491801e-06,8.22767106001265e-06,-0.12200590895414133,9.69162828950213,-0.559287378683325
1743286184967670016,-0.0209088325500488,0.00175014964770526,-0.0034824307076633,-0.12204080668284907,9.69226341530293,-0.5537120700946462
1743286184972529920,-0.0174181740731001,4.82044697491801e-06,0.00175355689134449,-0.12204828421482974,9.705040056378884,-0.5594408213930345
1743286184977390080,-0.0139275165274739,-0.00174050882924348,-0.00173710158560425,-0.1220557621136438,9.71781732425238,-0.5651698537329899
1743286184982249984,-0.0156728439033031,4.82044697491801e-06,8.22767106001265e-06,-0.12338484896799828,9.723890086697294,-0.569852806591202
1743286184987099904,-0.00694619910791516,4.82044697491801e-06,-0.0034824307076633,-0.12961550017532064,9.705073203407862,-0.5706453023220084
1743286184991950080,-0.00520086986944079,4.82044697491801e-06,0.00175355689134449,-0.1358464576775603,9.686255395092212,-0.5714378370114093
1743286184996790016,3.51176349795423e-05,4.82044697491801e-06,8.22767106001265e-06,-0.1413919367372213,9.669508034690146,-0.572817064800678
1743286185001629952,0.00527110556140542,0.00175014964770526,-0.00173710158560425,-0.13508845200081313,9.688549873744774,-0.584566188231709
1743286185006469888,3.51176349795423e-05,-0.00348583795130253,0.00349888624623418,-0.12878527776559878,9.707590774823977,-0.5963147329166963
1743286185011310080,-0.00345554086379707,4.82044697491801e-06,8.22767106001265e-06,-0.12248179302919057,9.726632613878603,-0.6080638563477274
1743286185016140032,-0.0156728439033031,-0.00174050882924348,8.22767106001265e-06,-0.1331443247432168,9.717394003152355,-0.5984964853673976
1743286185020960000,-0.0209088325500488,0.00175014964770526,-0.00173710158560425,-0.1457387918425187,9.704919882396043,-0.5864949708039865
1743286185025789952,-0.0226541608572006,0.00349547900259495,8.22767106001265e-06,-0.15835880047375267,9.69242046416973,-0.5744691172141568
1743286185030610176,-0.0243994910269976,4.82044697491801e-06,8.22767106001265e-06,-0.15248424770600114,9.707449383210822,-0.5659094394228459
1743286185035419904,-0.0139275165274739,4.82044697491801e-06,0.00349888624623418,-0.14002882413491438,9.732264811064482,-0.5585966892373921
1743286185040240128,3.51176349795423e-05,4.82044697491801e-06,8.22767106001265e-06,-0.12754685237241511,9.757133131918922,-0.5512683522442663
1743286185045039872,0.0122524220496416,4.82044697491801e-06,8.22767106001265e-06,-0.12225684083957424,9.756617767368517,-0.5522898657419205
1743286185049850112,0.0262150578200817,4.82044697491801e-06,8.22767106001265e-06,-0.1221540618027209,9.737694593635084,-0.559370974262498
1743286185054650112,0.034941703081131,4.82044697491801e-06,-0.00173710158560425,-0.12205149672966176,9.718810813869272,-0.5664373414419175
1743286185059449856,0.0331963747739792,0.00349547900259495,8.22767106001265e-06,-0.1219273130093656,9.702677098121315,-0.5786786891468633
1743286185064239872,0.0314510427415371,0.00175014964770526,8.22767106001265e-06,-0.12177368208509261,9.69035215186478,-0.5980034010762705
1743286185069030144,0.0262150578200817,0.00175014964770526,8.22767106001265e-06,-0.12162005116081961,9.678027205608242,-0.6173281130056778
1743286185073820160,0.0157430805265903,4.82044697491801e-06,8.22767106001265e-06,-0.11987631397047348,9.670493155398812,-0.6299038323103414
1743286185078599936,0.00352577609010041,0.00349547900259495,8.22767106001265e-06,-0.11364281913826461,9.67651384847355,-0.6233806223779276
1743286185083379968,3.51176349795423e-05,4.82044697491801e-06,8.22767106001265e-06,-0.10740901337754258,9.682534841862186,-0.6168570870659282
1743286185088160000,-0.00694619910791516,4.82044697491801e-06,-0.00173710158560425,-0.101814165711403,9.68793869018555,-0.611002206802368
1743286185092930048,-0.00345554086379707,0.00524080824106932,8.22767106001265e-06,-0.101814165711403,9.68793869018555,-0.611002206802368
1743286185097700096,-0.0017102116253227,4.82044697491801e-06,8.22767106001265e-06,-0.101814165711403,9.68793869018555,-0.611002206802368
1743286185102459904,0.00352577609010041,4.82044697491801e-06,8.22767106001265e-06,-0.101814165711403,9.68793869018555,-0.611002206802368
1743286185107229952,0.00527110556140542,4.82044697491801e-06,8.22767106001265e-06,-0.10176583573288356,9.694143772246273,-0.6226031861934564
1743286185111980032,0.00527110556140542,4.82044697491801e-06,-0.0034824307076633,-0.10171481961748442,9.70069372720525,-0.634848937619156
1743286185116740096,0.00527110556140542,4.82044697491801e-06,8.22767106001265e-06,-0.10166369595418355,9.707257490230697,-0.6471205045123994
1743286185121489920,3.51176349795423e-05,-0.00174050882924348,8.22767106001265e-06,-0.1016756045269996,9.698527113101608,-0.6403185041777482
1743286185126240000,-0.0104368580505252,0.00175014964770526,-0.0034824307076633,-0.1017047193520486,9.685618451493598,-0.6283080486158179
1743286185130980096,-0.00869152881205082,4.82044697491801e-06,8.22767106001265e-06,-0.10173377279966188,9.672737002844856,-0.6163229124903982
1743286185135719936,-0.0139275165274739,4.82044697491801e-06,8.22767106001265e-06,-0.10572110606089656,9.67600449042765,-0.611504790792624
1743286185140450048,-0.0104368580505252,4.82044697491801e-06,8.22767106001265e-06,-0.11205404877909811,9.688869026986508,-0.6109591508099891
1743286185145189888,-0.00520086986944079,4.82044697491801e-06,8.22767106001265e-06,-0.11840039860421857,9.70176079831201,-0.6104123556844907
1743286185149910016,3.51176349795423e-05,0.00175014964770526,-0.00522775994613767,-0.11878603234351144,9.699600992614384,-0.6105034472407864
1743286185154639872,-0.00520086986944079,4.82044697491801e-06,-0.00522775994613767,-0.11241828682798714,9.680366315073453,-0.6113181697699192
1743286185159360000,-0.00520086986944079,0.00349547900259495,-0.0034824307076633,-0.10606402209837201,9.661172358156382,-0.6121311674970847
1743286185164079872,-0.0139275165274739,0.00175014964770526,0.00175355689134449,-0.10365248388708931,9.655830673508959,-0.6123576536594374
1743286185168790016,-0.019163504242897,4.82044697491801e-06,8.22767106001265e-06,-0.11003267655454982,9.681371142013061,-0.6112765746292288
1743286185173500160,-0.0261448211967945,4.82044697491801e-06,8.22767106001265e-06,-0.11641254627239161,9.706910317721633,-0.6101955503205746
1743286185178210048,-0.0209088325500488,4.82044697491801e-06,-0.00173710158560425,-0.12182401599779966,9.726684574326805,-0.6093583743653398
1743286185182909952,-0.019163504242897,-0.00348583795130253,8.22767106001265e-06,-0.12177995613291558,9.71400832089533,-0.6098938131003744
1743286185187609856,-0.0156728439033031,4.82044697491801e-06,8.22767106001265e-06,-0.1217358962680315,9.701332067463852,-0.6104292518354089
1743286185192310016,-0.0121821872889996,4.82044697491801e-06,-0.0034824307076633,-0.12169183416808096,9.688655170992075,-0.6109647177321507
1743286185196999936,-0.0174181740731001,4.82044697491801e-06,8.22767106001265e-06,-0.12174978483569175,9.694759789189927,-0.6044729795553886
1743286185201689856,-0.0174181740731001,4.82044697491801e-06,-0.00173710158560425,-0.12180838727770461,9.700984341542702,-0.5979363086806315
1743286185206370048,-0.0226541608572006,4.82044697491801e-06,8.22767106001265e-06,-0.12186686757543795,9.707195920144958,-0.5914132621008196
1743286185211059968,-0.0261448211967945,-0.00174050882924348,8.22767106001265e-06,-0.12190718434095549,9.708136550065873,-0.5850855917387958
1743286185215729920,-0.0243994910269976,4.82044697491801e-06,8.22767106001265e-06,-0.12194369741752287,9.708023778839973,-0.578826449483128
1743286185220410112,-0.0174181740731001,4.82044697491801e-06,8.22767106001265e-06,-0.12198029065247551,9.707910760043605,-0.572553566321911
1743286185225080064,-0.00694619910791516,4.82044697491801e-06,-0.00173710158560425,-0.12625636603197327,9.708010759841725,-0.5705224788569819
1743286185229750016,0.00352577609010041,4.82044697491801e-06,8.22767106001265e-06,-0.13255818066486308,9.708212425468663,-0.5705116321487868
1743286185234409984,0.00876176357269287,0.00349547900259495,8.22767106001265e-06,-0.1388468041811986,9.708413668964047,-0.5705008081451933
1743286185239069952,0.013997751288116,4.82044697491801e-06,8.22767106001265e-06,-0.13858577006113343,9.705111104287854,-0.5706403761371279
1743286185243719936,0.0105070928111672,4.82044697491801e-06,8.22767106001265e-06,-0.13227583171851298,9.698579100206297,-0.5709185640303343
1743286185248379904,0.00527110556140542,4.82044697491801e-06,8.22767106001265e-06,-0.12595262904693194,9.692033364984088,-0.5711973367114621
1743286185253020160,-0.00345554086379707,4.82044697491801e-06,-0.00522775994613767,-0.12416594693309625,9.685694730082727,-0.5737227007280679
1743286185257669888,-0.00694619910791516,4.82044697491801e-06,8.22767106001265e-06,-0.13041194416029447,9.679662268475342,-0.5802590269958591
1743286185262310144,-0.00520086986944079,0.00524080824106932,8.22767106001265e-06,-0.13664481079802876,9.673642488554156,-0.5867816123326663
1743286185266949888,-0.00694619910791516,0.00175014964770526,-0.0034824307076633,-0.14035134529326054,9.672658309309881,-0.5918220071087631
1743286185271579904,-0.00345554086379707,4.82044697491801e-06,8.22767106001265e-06,-0.13412653206457853,9.691457547364703,-0.5910302545282904
1743286185276210176,-0.0017102116253227,4.82044697491801e-06,0.00175355689134449,-0.12790171883589652,9.710256785419526,-0.5902385019478178
1743286185280839936,0.00178044685162604,4.82044697491801e-06,8.22767106001265e-06,-0.12194487874789797,9.727414865210923,-0.5892443476690266
1743286185285459968,0.00527110556140542,4.82044697491801e-06,-0.00173710158560425,-0.12191537806329147,9.708290720831405,-0.5837785861511443
1743286185290080000,0.00527110556140542,0.00175014964770526,8.22767106001265e-06,-0.12188587737868498,9.689166576451887,-0.5783128246332622
1743286185294700032,0.00701643479987979,4.82044697491801e-06,-0.00173710158560425,-0.12185637821645874,9.670043418972172,-0.5728473451755264
1743286185299310080,0.00352577609010041,4.82044697491801e-06,-0.00173710158560425,-0.1218791181778595,9.684784849919065,-0.5770605086190287
1743286185303920128,0.00527110556140542,0.00175014964770526,8.22767106001265e-06,-0.12190863595831705,9.703920076872715,-0.5825294375835689
1743286185308520192,0.0105070928111672,0.00175014964770526,8.22767106001265e-06,-0.1219380896227848,9.723013739928346,-0.587986487409895
1743286185313120000,0.0122524220496416,4.82044697491801e-06,-0.0034824307076633,-0.11732585661078784,9.714286605139945,-0.5900721413048418
1743286185317720064,0.013997751288116,0.00175014964770526,8.22767106001265e-06,-0.1109625146951253,9.69506522929632,-0.590886300414471
1743286185322309888,0.00876176357269287,-0.0052311671897769,-0.00173710158560425,-0.1046130247728523,9.675885695361341,-0.5916986872279147
1743286185326899968,0.00527110556140542,4.82044697491801e-06,8.22767106001265e-06,-0.1018311212258359,9.671291294615775,-0.5990083239624313
1743286185331490048,3.51176349795423e-05,4.82044697491801e-06,8.22767106001265e-06,-0.1017799506888394,9.677860773442154,-0.6112911422733986
1743286185336070144,-0.00520086986944079,4.82044697491801e-06,8.22767106001265e-06,-0.10172889178505264,9.684415920349212,-0.6235471644920607
1743286185340649984,-0.0104368580505252,-0.00174050882924348,8.22767106001265e-06,-0.10428799083577915,9.68833072320224,-0.6282304065984817
1743286185345230080,-0.0139275165274739,4.82044697491801e-06,8.22767106001265e-06,-0.110629223403971,9.688419652710275,-0.6219406478436416
1743286185349800192,-0.0139275165274739,0.00175014964770526,-0.00173710158560425,-0.11695659174687059,9.688508387786278,-0.6156646407737416
1743286185354370048,-0.0156728439033031,4.82044697491801e-06,8.22767106001265e-06,-0.12008661126396204,9.688580880332356,-0.61413094527196
1743286185358930176,-0.00694619910791516,4.82044697491801e-06,8.22767106001265e-06,-0.11372339613563105,9.68860502325092,-0.6266708148977446
1743286185363500032,-0.0017102116253227,4.82044697491801e-06,-0.0034824307076633,-0.10734620761843727,9.688629219186454,-0.6392382216208983
1743286185368050176,0.00178044685162604,0.00524080824106932,8.22767106001265e-06,-0.10158114976101042,9.688066054187972,-0.6506200158646676
1743286185372610048,-0.0017102116253227,4.82044697491801e-06,-0.00173710158560425,-0.10155908158382734,9.681715715143511,-0.6508882196379305
1743286185377160192,-0.0017102116253227,4.82044697491801e-06,8.22767106001265e-06,-0.10153706186755829,9.675379321212501,-0.6511558344454675
1743286185381700096,-0.0104368580505252,4.82044697491801e-06,8.22767106001265e-06,-0.10151509061220325,9.669056872394943,-0.6514228602872785
1743286185386249984,-0.0156728439033031,4.82044697491801e-06,8.22767106001265e-06,-0.10751865493305177,9.680487137611946,-0.6391864567229004
1743286185390789888,-0.0209088325500488,0.00175014964770526,0.00175355689134449,-0.11393330273047317,9.693143300008146,-0.6260965029934106
1743286185395320064,-0.0226541608572006,4.82044697491801e-06,8.22767106001265e-06,-0.12033380205570197,9.705771547331313,-0.6130354211290945
1743286185399849984,-0.0209088325500488,0.00175014964770526,8.22767106001265e-06,-0.12181796759422653,9.708412062732636,-0.6003773734920074
1743286185404380160,-0.0156728439033031,4.82044697491801e-06,8.22767106001265e-06,-0.12189114285976614,9.708186074324665,-0.5878343370717722
1743286185408910080,-0.0121821872889996,-0.00174050882924348,8.22767106001265e-06,-0.12196431427417867,9.707960097810194,-0.5752919607766054
1743286185413430016,-0.00869152881205082,4.82044697491801e-06,-0.0034824307076633,-0.12194210488250555,9.700085396907054,-0.5747488300856647
1743286185417949952,-0.00869152881205082,4.82044697491801e-06,8.22767106001265e-06,-0.12186140517323944,9.687511998683764,-0.581559458575134
1743286185422460160,-0.00694619910791516,4.82044697491801e-06,-0.0034824307076633,-0.12178087999124836,9.67496579263935,-0.5883553578859944
1743286185426970112,-0.0017102116253227,4.82044697491801e-06,0.00349888624623418,-0.121740947295655,9.674108662908482,-0.5946633203211186
1743286185431479808,-0.00869152881205082,4.82044697491801e-06,8.22767106001265e-06,-0.12174843266934632,9.686906772312177,-0.6004016597416568
1743286185435980032,-0.0104368580505252,0.00175014964770526,8.22767106001265e-06,-0.1217559018186603,9.699677142104667,-0.6061275614419454
1743286185440480000,-0.00694619910791516,4.82044697491801e-06,-0.0034824307076633,-0.12175004563078139,9.708621738085874,-0.6120200591904784
1743286185444969984,-0.00694619910791516,4.82044697491801e-06,8.22767106001265e-06,-0.12171350489999971,9.708734292966543,-0.6182839419850301
1743286185449469952,3.51176349795423e-05,4.82044697491801e-06,8.22767106001265e-06,-0.121676880734032,9.708847104849118,-0.6245621274006611
1743286185453949952,0.00178044685162604,4.82044697491801e-06,8.22767106001265e-06,-0.12072995667264802,9.707136780268119,-0.6317878428416445
1743286185458440192,0.00178044685162604,4.82044697491801e-06,-0.00173710158560425,-0.11430489535120725,9.69446038384331,-0.6448990371217665
1743286185462919936,3.51176349795423e-05,-0.0052311671897769,-0.00173710158560425,-0.10789450389844496,9.681812930499598,-0.6579802955789159
1743286185467400192,3.51176349795423e-05,-0.00174050882924348,-0.00173710158560425,-0.10148377128594596,9.669164804060976,-0.6710622502179948
1743286185471869952,-0.0017102116253227,4.82044697491801e-06,8.22767106001265e-06,-0.10762064834832982,9.662832957143062,-0.665307460508523
1743286185476339968,-0.0017102116253227,4.82044697491801e-06,-0.0034824307076633,-0.11392793090346999,9.656586094738648,-0.6592971462020194
1743286185480809984,3.51176349795423e-05,0.00349547900259495,-0.0034824307076633,-0.12023487705226556,9.650339565518,-0.6532871524627092
1743286185485270016,-0.00345554086379707,0.00349547900259495,8.22767106001265e-06,-0.1213458887377333,9.665090861326311,-0.6567752811138271
1743286185489729792,-0.00520086986944079,0.00175014964770526,-0.00173710158560425,-0.12137540255904622,9.684220461963609,-0.6622426020533081
1743286185494179840,-0.00694619910791516,-0.0052311671897769,8.22767106001265e-06,-0.12140485169166707,9.703308134148745,-0.6676979396634553
1743286185498640128,-0.00520086986944079,4.82044697491801e-06,8.22767106001265e-06,-0.11722017477146715,9.709445998536202,-0.6653178149839082
1743286185503089920,-0.00869152881205082,4.82044697491801e-06,-0.0034824307076633,-0.1109568240666822,9.709131347810814,-0.6590543084272691
1743286185507529984,-0.0139275165274739,0.00175014964770526,-0.00522775994613767,-0.10470723232990499,9.708817388292015,-0.6528045611810042
1743286185511970048,-0.0174181740731001,0.00175014964770526,8.22767106001265e-06,-0.10169760911294026,9.705248110427668,-0.6402642709836995
1743286185516410112,-0.0209088325500488,0.00175014964770526,-0.00522775994613767,-0.10178536993833803,9.698566774210082,-0.6217102719385464
1743286185520839936,-0.0156728439033031,0.00524080824106932,-0.00173710158560425,-0.1018729281263792,9.691900865015926,-0.6031991135720672
1743286185525270016,-0.0121821872889996,4.82044697491801e-06,-0.0034824307076633,-0.10192452799267551,9.689856614635865,-0.593321932042895
1743286185529700096,-0.00345554086379707,4.82044697491801e-06,8.22767106001265e-06,-0.1019099620319507,9.696316085431576,-0.5993316229827644
1743286185534120192,0.00352577609010041,-0.00174050882924348,8.22767106001265e-06,-0.1018954289957375,9.702760955410676,-0.6053277297764914
1743286185538539776,0.0122524220496416,0.00175014964770526,-0.0034824307076633,-0.10185374671889717,9.705546610183214,-0.6139276831603049
1743286185542959872,0.0122524220496416,4.82044697491801e-06,-0.00173710158560425,-0.10169966993302425,9.693185894954519,-0.6333085163306353
1743286185547369984,0.00178044685162604,4.82044697491801e-06,8.22767106001265e-06,-0.10154594220724124,9.6808531828565,-0.6526454423326635
1743286185551780096,-0.00694619910791516,4.82044697491801e-06,0.00349888624623418,-0.10164519777920769,9.66973350100451,-0.6709634603573745
1743286185556179968,-0.0243994910269976,4.82044697491801e-06,-0.00173710158560425,-0.10803993518639893,9.688826370144383,-0.6638834823869075
1743286185560580096,-0.0366167947649956,0.00175014964770526,-0.0034824307076633,-0.11443467259359016,9.707919239284257,-0.6568035044164406
1743286185564979968,-0.0401074551045895,0.00175014964770526,-0.00173710158560425,-0.1208294100007814,9.727012108424129,-0.6497235264459738
1743286185569370112,-0.0401074551045895,0.00175014964770526,-0.00173710158560425,-0.12162527364797884,9.717966674575148,-0.6383148606430138
1743286185573760000,-0.033126138150692,0.00349547900259495,-0.00522775994613767,-0.1216543711033785,9.705063621548295,-0.6263096234078787
1743286185578150144,-0.0226541608572006,0.00349547900259495,-0.0034824307076633,-0.12168346855877815,9.69216056852144,-0.6143043861727435
1743286185582530048,-0.019163504242897,4.82044697491801e-06,-0.00173710158560425,-0.12173383851573089,9.693066025243901,-0.6062516741228418
1743286185586909952,-0.0104368580505252,0.00175014964770526,-0.00173710158560425,-0.12179244681672609,9.699291199917882,-0.5997143497217475
1743286185591290112,-0.0104368580505252,4.82044697491801e-06,-0.0034824307076633,-0.1218510551177213,9.705516374591861,-0.5931770253206534
1743286185595660032,-0.00520086986944079,4.82044697491801e-06,-0.00173710158560425,-0.1254307082992041,9.704710752373746,-0.5869395308351125
1743286185600029952,-0.0174181740731001,-0.00174050882924348,-0.00173710158560425,-0.13174424052114808,9.698457397959539,-0.5809232233409075
1743286185604389888,-0.0226541608572006,4.82044697491801e-06,-0.00173710158560425,-0.1380433055952214,9.692218372798724,-0.5749207019187608
1743286185608750080,-0.0174181740731001,-0.00348583795130253,0.00175355689134449,-0.1392586185407605,9.693585022866152,-0.5736628837015442
1743286185613110016,-0.0156728439033031,4.82044697491801e-06,-0.0034824307076633,-0.13296314632960224,9.706187940528974,-0.5794149531802345
1743286185617459968,-0.0104368580505252,4.82044697491801e-06,8.22767106001265e-06,-0.12668213301453787,9.718761912900504,-0.5851538118032293
1743286185621809920,3.51176349795423e-05,-0.00174050882924348,-0.0034824307076633,-0.12190286172416992,9.723644004625298,-0.5943105454589562
1743286185626159872,-0.0017102116253227,4.82044697491801e-06,-0.00522775994613767,-0.1217268580438173,9.704948288405093,-0.6139440408850247
1743286185630500096,-0.00694619910791516,4.82044697491801e-06,-0.00697308918461204,-0.12155124987735312,9.686294585030327,-0.6335334160966527
1743286185634840064,-0.00520086986944079,4.82044697491801e-06,-0.0034824307076633,-0.12083174773499392,9.668155606075807,-0.652004281276732
1743286185639180032,-0.0139275165274739,0.00175014964770526,-0.00522775994613767,-0.1144449336306824,9.655369223479287,-0.658831821411184
1743286185643510016,-0.0174181740731001,-0.00174050882924348,8.22767106001265e-06,-0.1080725050330608,9.642611640623823,-0.6656439833582211
1743286185647840000,-0.0156728439033031,4.82044697491801e-06,-0.0034824307076633,-0.10170042730145604,9.629854760201068,-0.6724557702275163
1743286185652160000,-0.00869152881205082,-0.00348583795130253,-0.0034824307076633,-0.10130003354455668,9.640767038296698,-0.672429363365551
1743286185656480000,3.51176349795423e-05,4.82044697491801e-06,-0.0034824307076633,-0.1013440903587389,9.653443771858788,-0.6718939043500349
1743286185660800000,-0.00345554086379707,0.00175014964770526,-0.0034824307076633,-0.10138814474152961,9.666119805821896,-0.6713584748852371
1743286185665110016,3.51176349795423e-05,4.82044697491801e-06,-0.00522775994613767,-0.10138112461626031,9.664099454863054,-0.6714438184480778
1743286185669420032,-0.00694619910791516,-0.00174050882924348,8.22767106001265e-06,-0.10135910195117655,9.657762212381074,-0.6717115068442352
1743286185673729792,-0.0156728439033031,0.00175014964770526,-0.0034824307076633,-0.10133707928609278,9.651424969899095,-0.6719791952403926
1743286185678030080,-0.0174181740731001,0.00349547900259495,-0.0034824307076633,-0.10137812533989242,9.656701054407096,-0.667902085960675
1743286185682329856,-0.0209088325500488,4.82044697491801e-06,-0.00697308918461204,-0.10145879481691705,9.669270175773855,-0.6610936104297297
1743286185686619904,-0.0174181740731001,0.00349547900259495,-0.00173710158560425,-0.1015392809033923,9.681810723036039,-0.6543006129967478
1743286185690920192,-0.0139275165274739,-0.00348583795130253,-0.0034824307076633,-0.101573108292075,9.685752040949279,-0.6507177471948615
1743286185695200000,-0.00694619910791516,0.00175014964770526,-0.00173710158560425,-0.10155111003122438,9.679421821029852,-0.6509851012457379
1743286185699490048,-0.00520086986944079,4.82044697491801e-06,-0.00697308918461204,-0.10152905907552578,9.67307643764006,-0.6512530957191083
1743286185703769856,-0.00694619910791516,0.00175014964770526,-0.00173710158560425,-0.1034375048278148,9.670495314231166,-0.6457268629012118
1743286185708049920,-0.0139275165274739,0.00175014964770526,-0.00871841888874769,-0.10987141646741218,9.67670270377369,-0.6266189577271155
1743286185712320000,-0.0313808061182499,4.82044697491801e-06,-0.00522775994613767,-0.11629027550624847,9.682895570680254,-0.6075557568766217
1743286185716589824,-0.0418527834117413,-0.00348583795130253,-0.00173710158560425,-0.12181220039924558,9.688202221050872,-0.5902893572784421
1743286185720849920,-0.0505794286727905,4.82044697491801e-06,-0.00173710158560425,-0.1218487510696672,9.68808933371575,-0.5840237328818474
1743286185725120000,-0.0505794286727905,4.82044697491801e-06,-0.00522775994613767,-0.12188538765502936,9.68797618103095,-0.5777433806911707
1743286185729379840,-0.0435981117188931,4.82044697491801e-06,-0.0034824307076633,-0.12192193627985716,9.687863300013676,-0.5714781069563399
1743286185733629952,-0.0261448211967945,-0.00174050882924348,-0.00522775994613767,-0.12195153783496981,9.706658103701788,-0.5767472149190186
1743286185737880064,-0.0121821872889996,4.82044697491801e-06,-0.00697308918461204,-0.12198102429876895,9.72576997236526,-0.5822095057097926
1743286185742129920,3.51176349795423e-05,4.82044697491801e-06,-0.00173710158560425,-0.1220105107625681,9.744881841028732,-0.5876717965005666
1743286185746380032,0.00527110556140542,4.82044697491801e-06,-0.0104637481272221,-0.12184625336872612,9.71705486216574,-0.6003107482539934
1743286185750619904,0.00527110556140542,4.82044697491801e-06,-0.00522775994613767,-0.12164097204155701,9.679260034663557,-0.6144534978760274
1743286185754849792,-0.0017102116253227,4.82044697491801e-06,-0.00871841888874769,-0.12143616400541943,9.6415523458853,-0.6285636403600923
1743286185759089920,-0.0139275165274739,4.82044697491801e-06,-0.0034824307076633,-0.12136269460762261,9.641726496628655,-0.6411282893619004
1743286185763320064,-0.0313808061182499,4.82044697491801e-06,-0.00697308918461204,-0.12135562178106903,9.660975463220801,-0.6528700879715543
1743286185767539968,-0.0453434400260448,4.82044697491801e-06,-0.0034824307076633,-0.12134856569776398,9.680178862425004,-0.6645840906426667
1743286185771770112,-0.0523247607052326,4.82044697491801e-06,-0.00522775994613767,-0.1181998962426169,9.686080799811533,-0.6577177193807178
1743286185775990016,-0.0558154173195362,-0.00174050882924348,-0.0034824307076633,-0.11202669907191944,9.679087435105844,-0.6329087006804207
1743286185780199936,-0.0558154173195362,4.82044697491801e-06,-0.00522775994613767,-0.10586815016569481,9.672110664824881,-0.6081585508380565
1743286185784410112,-0.057560745626688,0.00175014964770526,-0.0034824307076633,-0.10189598907712988,9.6741765805869,-0.5895787635779838
1743286185788620032,-0.057560745626688,-0.00174050882924348,-0.0034824307076633,-0.10199874994778407,9.693095974779988,-0.5824991071637908
1743286185792819968,-0.057560745626688,4.82044697491801e-06,-0.0034824307076633,-0.1021012663991061,9.711970368715056,-0.5754362898915956
1743286185797019904,-0.0540700890123844,4.82044697491801e-06,-0.00697308918461204,-0.1034033200621385,9.728454521218769,-0.5672734350423292
1743286185801219840,-0.0401074551045895,-0.00174050882924348,-0.00173710158560425,-0.10980421133357662,9.73477854464572,-0.5544346827603912
1743286185805409792,-0.0209088325500488,-0.00174050882924348,-0.00697308918461204,-0.11618984162446297,9.741087490360139,-0.5416265405826677
1743286185809600000,-0.0104368580505252,-0.00174050882924348,-0.00871841888874769,-0.12257287741220546,9.74676392475872,-0.5290537004356193
1743286185813790208,-0.00520086986944079,4.82044697491801e-06,-0.00871841888874769,-0.1288701039130562,9.734157797666615,-0.5232999902804534
1743286185817969920,-0.00345554086379707,4.82044697491801e-06,-0.00173710158560425,-0.13515228070905683,9.721581797884049,-0.5175600308835961
1743286185822149888,-0.0296354778110981,4.82044697491801e-06,-0.0034824307076633,-0.14143445750505745,9.709005798101485,-0.5118200714867389
1743286185826329856,-0.0296354778110981,-0.00174050882924348,-0.0104637481272221,-0.13665335039617152,9.696141617189227,-0.5115853164972012
1743286185830499840,-0.019163504242897,0.00175014964770526,-0.00522775994613767,-0.1303156416136678,9.683267408584463,-0.5121314044571815
1743286185834670080,-0.0296354778110981,4.82044697491801e-06,-0.00871841888874769,-0.1239775704693126,9.670392463890014,-0.5126775236400298
1743286185838830080,-0.0453434400260448,-0.0052311671897769,-0.00522775994613767,-0.12224694180507625,9.680441853754074,-0.5122537067147473
1743286185842989824,-0.0470887720584869,-0.00348583795130253,-0.00173710158560425,-0.12231300092785191,9.69944861496163,-0.511450901795984
1743286185847150080,-0.0366167947649956,-0.00174050882924348,-0.00871841888874769,-0.12237906383668458,9.718456465506717,-0.5106480508659346
1743286185851340032,-0.0313808061182499,4.82044697491801e-06,8.22767106001265e-06,-0.13796810525077272,9.748214277333787,-0.47435580753516093
1743286185856339968,-0.0715233832597733,4.82044697491801e-06,-0.00522775994613767,-0.1709318806257897,9.793544063663214,-0.3982189243323402
1743286185861340160,-0.0819953605532646,-0.00174050882924348,-0.0034824307076633,-0.20389722787507952,9.838876011538888,-0.3220784105499951
1743286185866329856,-0.108175300061703,0.00349547900259495,0.00524421548470855,-0.22134876914215015,9.88048845664101,-0.24078443438536043
1743286185871330048,-0.158789843320847,-0.00348583795130253,0.00175355689134449,-0.21569489498855712,9.9167531491032,-0.15136871135480134
1743286185876329984,-0.118647269904613,-0.00174050882924348,-0.0034824307076633,-0.21004129042652206,9.953016112369683,-0.06195725190058357
1743286185881329920,-0.0994486510753632,-0.0052311671897769,-0.0034824307076633,-0.20119130970789198,9.97079507439984,0.016720622629908845
1743286185886320128,-0.08723134547472,-0.00697649642825127,-0.00522775994613767,-0.18247576437858323,9.931375192636969,0.06203639034441984
1743286185891320064,-0.0715233832597733,-0.00348583795130253,-0.00522775994613767,-0.16372355696812294,9.891878090847712,0.10744092759912648
1743286185896320000,0.00701643479987979,-0.00872182566672564,8.22767106001265e-06,-0.1486720090093539,9.853332559790006,0.13695943121549076
1743286185901319936,0.125698819756508,-0.0104671549052,-0.0034824307076633,-0.17294933683660313,9.824919098196522,-0.002331938385086385
1743286185906320128,0.19202134013176,-0.00697649642825127,8.22767106001265e-06,-0.19722782232575817,9.796504281710018,-0.14162995008044205
1743286185911310080,0.232163906097412,-0.0052311671897769,8.22767106001265e-06,-0.22145652835296237,9.768147725623516,-0.2806423517003209
1743286185916310016,0.267070472240448,-0.00348583795130253,8.22767106001265e-06,-0.2279348534469722,9.70727785159637,-0.44753274194666814
1743286185921309952,0.232163906097412,4.82044697491801e-06,8.22767106001265e-06,-0.23303187279376772,9.643892906512765,-0.6165558847767614
1743286185926300160,0.108245529234409,4.82044697491801e-06,-0.00173710158560425,-0.2381189270557691,9.580631884119944,-0.7852485737011738
1743286185931299840,-0.0348714664578438,0.00524080824106932,0.00524421548470855,-0.22494772558407825,9.555084573611266,-0.7835041930913035
1743286185936300032,-0.16228049993515,0.0139674544334412,0.00175355689134449,-0.20631937942305908,9.540837730143975,-0.7307533483623688
1743286185941299968,-0.270490914583206,0.0139674544334412,0.008734873495996,-0.18769192151047406,9.526591566003573,-0.6780050189321527
1743286185946289920,-0.317614823579788,0.0139674544334412,0.00524421548470855,-0.18511668252976665,9.61300811693228,-0.5788423848314981
1743286185951289856,-0.258273631334305,0.0122221251949668,8.22767106001265e-06,-0.1926573085631099,9.763188419872872,-0.4500896093747602
1743286185956290048,-0.184969782829285,0.0122221251949668,8.22767106001265e-06,-0.20019829417043786,9.91337588414592,-0.3213306943550327
1743286185961280000,-0.0750140398740768,0.00873146671801805,-0.00173710158560425,-0.20425185596323878,9.976295130913723,-0.2492316665432426
1743286185966279936,0.045413676649332,0.00698613747954369,-0.00697308918461204,-0.2041451328555354,9.934940649504494,-0.24469721476519343
1743286185971280128,0.153624102473259,0.00524080824106932,-0.00522775994613767,-0.2040384046587515,9.89358419611103,-0.24016254676227283
1743286185976270080,0.214710623025894,-0.00174050882924348,-0.00173710158560425,-0.20384908069842742,9.85544057247289,-0.25140568037060534
1743286185981270016,0.21994660794735,0.00175014964770526,-0.00697308918461204,-0.20346442200629603,9.824581980838545,-0.2997910099140239
1743286185986259968,0.199002653360367,4.82044697491801e-06,0.00175355689134449,-0.20308055200021088,9.793786660205548,-0.3480771324590462
1743286185991260160,0.137916132807732,-0.00348583795130253,0.00349888624623418,-0.19829269373475947,9.759180664003939,-0.39354641221737696
1743286185996259840,0.097773551940918,-0.00174050882924348,0.00175355689134449,-0.16645727060075327,9.701556915320895,-0.42110093324422815
1743286186001250048,0.0471590086817741,-0.0052311671897769,0.00175355689134449,-0.13468408829210088,9.64404582572402,-0.44860158295535285
1743286186006249984,-0.0226541608572006,-0.0052311671897769,0.00698954472318292,-0.10284866515809468,9.586422077040977,-0.4761561039822041
1743286186011249920,-0.073268711566925,-0.00348583795130253,0.00524421548470855,-0.09611540236300843,9.635475371993564,-0.4992126781983639
1743286186016239872,-0.0959579944610596,-0.0052311671897769,0.00524421548470855,-0.08985577490084772,9.686382168306496,-0.5221395643227912
1743286186021240064,-0.0994486510753632,-0.00348583795130253,0.00349888624623418,-0.083583286624464,9.737393555963566,-0.5451135552349939
1743286186026230016,-0.0610514059662819,4.82044697491801e-06,8.22767106001265e-06,-0.07718135697303181,9.746475150721846,-0.5697950803062455
1743286186031229952,-0.0209088325500488,4.82044697491801e-06,8.22767106001265e-06,-0.07073684286075028,9.74672504631732,-0.5948959521750488
1743286186036220160,0.034941703081131,4.82044697491801e-06,8.22767106001265e-06,-0.06430492829444194,9.746974453346704,-0.6199477498105479
1743286186041219840,0.0733389407396317,-0.00174050882924348,0.00175355689134449,-0.06618637454751873,9.739155023006871,-0.6516721997091054
1743286186046220032,0.132680147886276,4.82044697491801e-06,-0.00522775994613767,-0.07224331018388773,9.727288520157368,-0.686719831511789
1743286186051209984,0.200747981667519,4.82044697491801e-06,0.00175355689134449,-0.07828782696500383,9.715446347825818,-0.7216956033026704
1743286186056209920,0.214710623025894,0.00349547900259495,-0.00522775994613767,-0.08108523743624439,9.666029426952338,-0.7439117976084828
1743286186061199872,0.174568042159081,0.00349547900259495,-0.0034824307076633,-0.08075179963798754,9.580711871409891,-0.7537801315373582
1743286186066200064,0.0523949973285198,0.00175014964770526,0.00175355689134449,-0.08041767676995548,9.495219025366783,-0.7636687406040301
1743286186071190016,-0.078504703938961,0.00349547900259495,0.00175355689134449,-0.08704009744052094,9.460679752218077,-0.7439070896385427
1743286186076189952,-0.155299186706543,0.00873146671801805,0.00175355689134449,-0.10657680402520081,9.520260707374531,-0.66915004242574
1743286186081180160,-0.19020576775074,0.0104767959564924,8.22767106001265e-06,-0.12607531476943568,9.57972517694797,-0.5945391512825442
1743286186086180096,-0.188460439443588,0.00873146671801805,0.00524421548470855,-0.14196522277368304,9.650306673130325,-0.5223716911914263
1743286186091170048,-0.150063186883926,0.00524080824106932,0.00349888624623418,-0.14270082931721662,9.766369304865048,-0.46108431490979895
1743286186096169984,-0.0645420700311661,0.00524080824106932,0.00175355689134449,-0.1434378768482459,9.882659292925672,-0.39967688213378333
1743286186101159936,0.0122524220496416,-0.00348583795130253,8.22767106001265e-06,-0.14434210248570858,9.991022911793268,-0.34191678497664557
1743286186106159872,0.0873015746474266,-0.00348583795130253,-0.00173710158560425,-0.15003863251153038,9.880866898680637,-0.3842548929014297
1743286186111150080,0.151878759264946,-0.00348583795130253,-0.0034824307076633,-0.15572402536072452,9.7709262494771,-0.4265102264032052
1743286186116150016,0.150133430957794,-0.0052311671897769,0.00349888624623418,-0.16142055538654632,9.66077023636447,-0.4688483343279894
1743286186121139968,0.116972170770168,-0.00697649642825127,8.22767106001265e-06,-0.15615528778352794,9.637272363607009,-0.5432229238396931
1743286186126130176,0.0698482841253281,-0.00348583795130253,0.00524421548470855,-0.14936464104506722,9.625815591765422,-0.6220715853196842
1743286186131129856,-0.00345554086379707,4.82044697491801e-06,-0.00173710158560425,-0.14256069203635915,9.614336377131405,-0.7010747042827464
1743286186136120064,-0.0593060739338398,-0.0052311671897769,8.22767106001265e-06,-0.13611990215511807,9.615614324332325,-0.7275181452382806
1743286186141120000,-0.0907220020890236,-0.0052311671897769,0.00349888624623418,-0.12980319236494856,9.621870518985094,-0.7335374762070284
1743286186146109952,-0.104684643447399,-0.00174050882924348,0.00524421548470855,-0.12349883225297259,9.628114482271656,-0.7395450388972145
1743286186151099904,-0.102939307689667,4.82044697491801e-06,-0.00522775994613767,-0.12440734055662851,9.65206532692875,-0.7289726819516844
1743286186156100096,-0.0645420700311661,0.00175014964770526,8.22767106001265e-06,-0.13097026478994817,9.689942645230731,-0.7053850064415488
1743286186161089792,-0.033126138150692,4.82044697491801e-06,-0.00173710158560425,-0.13751973271285237,9.727742301665131,-0.6818456939891537
1743286186166089984,-0.00520086986944079,4.82044697491801e-06,0.00175355689134449,-0.14138070552948695,9.740108299399553,-0.6707567674843884
1743286186171080192,0.0436683483421803,4.82044697491801e-06,8.22767106001265e-06,-0.1412561274672393,9.714891711708027,-0.678090733317203
1743286186176069888,0.083810918033123,4.82044697491801e-06,-0.00173710158560425,-0.1411315553571208,9.689676328822411,-0.6854243487455345
1743286186181070080,0.083810918033123,0.00524080824106932,-0.00522775994613767,-0.14257239666080276,9.663622591192155,-0.6897152563999489
1743286186186060032,0.0628669634461403,0.00349547900259495,8.22767106001265e-06,-0.14879942252280387,9.635216344769702,-0.6846441080244949
1743286186191049984,0.020979069173336,0.00524080824106932,-0.00522775994613767,-0.1550267459157841,9.606808741079993,-0.6795727173465719
1743286186196049920,-0.0261448211967945,0.00524080824106932,8.22767106001265e-06,-0.15963647527490438,9.583266446310132,-0.6715210529993165
1743286186201040128,-0.0697780549526215,0.00524080824106932,-0.00173710158560425,-0.14737514642517366,9.610683030936816,-0.6327536184832736
1743286186206029824,-0.08723134547472,0.00349547900259495,0.00175355689134449,-0.13511440340099715,9.638098305645457,-0.5939880362096824
1743286186211030016,-0.102939307689667,4.82044697491801e-06,0.00175355689134449,-0.12282846987798937,9.66556990682992,-0.5551428075106642
1743286186216020224,-0.0994486510753632,4.82044697491801e-06,8.22767106001265e-06,-0.11632745382181714,9.708340255991454,-0.5390345471979635
1743286186221009920,-0.0697780549526215,4.82044697491801e-06,8.22767106001265e-06,-0.11026122248484574,9.752266626062848,-0.5246361346346669
1743286186226010112,-0.0261448211967945,-0.0052311671897769,0.00175355689134449,-0.10418252767864553,9.7962832457359,-0.5102081395905913
1743286186231000064,0.0192337408661842,4.82044697491801e-06,-0.0034824307076633,-0.0954203012268262,9.796373714210334,-0.5170653395617878
1743286186235990016,0.059376310557127,4.82044697491801e-06,-0.00522775994613767,-0.08586846949486678,9.783632299204521,-0.5301449277519777
1743286186240979968,0.0907922312617302,4.82044697491801e-06,-0.0034824307076633,-0.076317094133272,9.770891492961969,-0.543223891021566
1743286186245979904,0.0960282236337662,-0.00872182566672564,-0.00173710158560425,-0.07424912063143167,9.729569230543547,-0.5806742621617973
1743286186250969856,0.0995188802480698,4.82044697491801e-06,-0.00522775994613767,-0.07689242001266128,9.670417502375361,-0.6333204227525079
1743286186255960064,0.0873015746474266,-0.00348583795130253,-0.00522775994613767,-0.07953584569229889,9.611262947902613,-0.6859690988079131
1743286186260950016,0.059376310557127,4.82044697491801e-06,-0.00697308918461204,-0.08094020610924485,9.580587279962156,-0.7217356258414522
1743286186265949952,-0.0017102116253227,0.00349547900259495,-0.0034824307076633,-0.08085963896763913,9.584044578277322,-0.7373027340128167
1743286186270940160,-0.0453434400260448,0.00175014964770526,-0.00173710158560425,-0.08077922934130718,9.58749511729484,-0.7528394072294804
1743286186275929856,-0.0802500322461128,4.82044697491801e-06,-0.0034824307076633,-0.08268271685991552,9.599277106269177,-0.7549177905915003
1743286186280920064,-0.0942126661539078,4.82044697491801e-06,-0.0034824307076633,-0.08924703228302729,9.630633021848585,-0.7253806167951254
1743286186285920000,-0.0802500322461128,0.00349547900259495,8.22767106001265e-06,-0.0958242066135613,9.662050360865102,-0.6957855823142952
1743286186290909952,-0.0488341003656387,0.00175014964770526,8.22767106001265e-06,-0.10239476099042731,9.694290045223772,-0.6657685904361335
1743286186295900160,-0.0261448211967945,4.82044697491801e-06,-0.00173710158560425,-0.10900355233386483,9.73194612447824,-0.632810915123478
1743286186300889856,-0.0156728439033031,4.82044697491801e-06,8.22767106001265e-06,-0.11561202792042974,9.76960040458893,-0.599854814472806
1743286186305880064,0.0227243974804878,-0.00174050882924348,-0.0034824307076633,-0.12222081926386724,9.807256483843398,-0.5668971391601505
1743286186310870016,0.0366870313882828,4.82044697491801e-06,-0.00871841888874769,-0.12215951656637743,9.745603284887462,-0.5627765032474018
1743286186315869952,0.0227243974804878,4.82044697491801e-06,-0.0104637481272221,-0.12197548804348168,9.68199800471885,-0.5591774374839019
1743286186320859904,0.00352577609010041,4.82044697491801e-06,-0.00697308918461204,-0.12179183684399261,9.618523137817794,-0.5555857510751526
1743286186325850112,-0.0296354778110981,4.82044697491801e-06,8.22767106001265e-06,-0.1269049654231608,9.628908318670907,-0.5747554113935368
1743286186330840064,-0.0418527834117413,4.82044697491801e-06,-0.00173710158560425,-0.1331365467210467,9.65489018844165,-0.5987313202173771
1743286186335830016,-0.0383621267974377,4.82044697491801e-06,-0.0034824307076633,-0.13936783028451794,9.680870816842598,-0.6227060835128455
1743286186340819968,-0.0313808061182499,-0.00174050882924348,-0.0034824307076633,-0.1539815271329665,9.694334781121919,-0.6388715443670734
1743286186345809920,-0.0261448211967945,-0.00174050882924348,-0.0034824307076633,-0.17281096483343786,9.701501244781042,-0.6511073586100449
1743286186350810112,-0.0261448211967945,4.82044697491801e-06,-0.0034824307076633,-0.1916790888457789,9.708682432408695,-0.6633683121340355
1743286186355799808,-0.0261448211967945,-0.00174050882924348,-0.0034824307076633,-0.20423193012246768,9.715241496680038,-0.6532822565113967
1743286186360790016,-0.0662873983383179,-0.00174050882924348,-0.00173710158560425,-0.21073060852124714,9.721214942277708,-0.6216627710100231
1743286186365780224,-0.0767593756318092,4.82044697491801e-06,-0.00522775994613767,-0.21722928692002663,9.72718838787538,-0.5900432855086495
1743286186370769920,-0.111665956676006,4.82044697491801e-06,0.00524421548470855,-0.22179136571491084,9.756961041905512,-0.5255224751649237
1743286186375760128,-0.179733783006668,-0.00348583795130253,0.00175355689134449,-0.2227687183601306,9.830798711745281,-0.40008059886846403
1743286186380749824,-0.16228049993515,0.00524080824106932,8.22767106001265e-06,-0.22374602430909396,9.904632853746072,-0.27464471597268736
1743286186385740032,-0.151808515191078,4.82044697491801e-06,-0.0104637481272221,-0.22098896268665558,9.955255369518767,-0.15380584961425373
1743286186390729984,-0.157044515013695,-0.00872182566672564,-0.00697308918461204,-0.20255788616533907,9.908436429952683,-0.05229258777458494
1743286186395719936,-0.146572530269623,-0.0104671549052,8.22767106001265e-06,-0.18412592899628397,9.861615253349973,0.049225524428782
1743286186400710144,-0.0767593756318092,-0.00697649642825127,-0.00522775994613767,-0.1665169696168678,9.816455535782481,0.14397594020050652
1743286186405700096,0.0297057144343853,-0.0122124841436744,8.22767106001265e-06,-0.17224370619422305,9.81840612798093,0.04683405671360359
1743286186410690048,0.101264208555222,-0.0122124841436744,-0.00522775994613767,-0.17797071639843948,9.820356813379828,-0.050312468269954086
1743286186415680000,0.183294698596001,-0.0139578133821487,-0.0034824307076633,-0.18369745297579473,9.822307405578277,-0.14745435175685706
1743286186420669952,0.246126547455788,-0.0104671549052,8.22767106001265e-06,-0.1832393932274816,9.756052593467697,-0.3216449951727718
1743286186425659904,0.268815815448761,-0.00697649642825127,8.22767106001265e-06,-0.18190369710057083,9.680122621675974,-0.5067598370682515
1743286186430650112,0.233909234404564,-0.00348583795130253,0.00349888624623418,-0.18056793715330902,9.604189021905283,-0.6918835238603765
1743286186435640064,0.122208163142204,4.82044697491801e-06,0.00175355689134449,-0.1709706338951442,9.573837676736034,-0.7715741456256487
1743286186440630016,3.51176349795423e-05,0.00175014964770526,0.00524421548470855,-0.15812016419645072,9.561439338305629,-0.8097384935182643
1743286186445619968,-0.141336545348167,0.00698613747954369,0.00524421548470855,-0.14526908049471368,9.549040407475278,-0.8479046649259973
1743286186450609920,-0.242565646767616,0.00698613747954369,0.00349888624623418,-0.13325766698736538,9.59671595147733,-0.7765609738610415
1743286186455600128,-0.286198884248734,0.0104767959564924,0.00175355689134449,-0.12190730504984429,9.691764154411407,-0.6188629121990457
1743286186460589824,-0.296670854091644,0.0122221251949668,8.22767106001265e-06,-0.11055748541341909,9.78680781610311,-0.4611723850837131
1743286186465580032,-0.237329646945,0.0139674544334412,-0.0034824307076633,-0.1064859445180485,9.858603732188401,-0.3396541179601551
1743286186470569984,-0.137845888733864,0.00524080824106932,-0.00522775994613767,-0.11329575952798362,9.895639017761043,-0.2722222500863944
1743286186475559936,-0.0017102116253227,0.00524080824106932,-0.00697308918461204,-0.12010524917647536,9.93267253385038,-0.20479360399322963
1743286186480550144,0.122208163142204,0.00524080824106932,-0.00697308918461204,-0.12664432292553132,9.945689795632958,-0.17032795929066027
1743286186485539840,0.211219966411591,4.82044697491801e-06,-0.00871841888874769,-0.1323372916185669,9.883674401396735,-0.23885006881323223
1743286186490530048,0.282778441905975,0.00175014964770526,-0.00697308918461204,-0.13803053232501414,9.821656044028293,-0.3073754523627297
1743286186495520000,0.31419438123703,4.82044697491801e-06,-0.00697308918461204,-0.14260378306198618,9.755573420931304,-0.3795837134664776
1743286186500509952,0.307213068008423,4.82044697491801e-06,-0.00522775994613767,-0.1353032539328781,9.64640668665478,-0.4908325105350083
1743286186505500160,0.225182592868805,4.82044697491801e-06,0.008734873495996,-0.12800237598016978,9.537234736327116,-0.6020866231368693
1743286186510489856,0.116972170770168,4.82044697491801e-06,0.00524421548470855,-0.12070184685106168,9.428068002050592,-0.7133354202054001
1743286186515470080,0.00527110556140542,-0.00348583795130253,0.00524421548470855,-0.12016914792442368,9.482510327210107,-0.7565045553700261
1743286186520459776,-0.108175300061703,4.82044697491801e-06,0.00349888624623418,-0.12016269437655219,9.549816818696382,-0.7944600278794172
1743286186525449984,-0.198932409286499,0.00524080824106932,0.00175355689134449,-0.12015624052032638,9.617126526126635,-0.8324173139237363
1743286186530440192,-0.219876363873482,0.00175014964770526,0.00524421548470855,-0.1205439234669701,9.695507613746557,-0.8095441323543009
1743286186535429888,-0.169261813163757,0.00349547900259495,0.00175355689134449,-0.12104960061676154,9.777199957097833,-0.7684581411095313
1743286186540420096,-0.0942126661539078,-0.00174050882924348,8.22767106001265e-06,-0.1215553019281063,9.858896203757599,-0.7273701867517967
1743286186545399808,-0.019163504242897,4.82044697491801e-06,-0.00173710158560425,-0.12171821767882154,9.871241858826238,-0.7064807601780592
1743286186550390016,0.0646122992038727,-0.0052311671897769,-0.0034824307076633,-0.12166291847035546,9.839369874631423,-0.6984115042110445
1743286186555380224,0.125698819756508,-0.00348583795130253,-0.00697308918461204,-0.12160761926188937,9.807497890436608,-0.6903422482440298
1743286186560369920,0.165841400623322,-0.00348583795130253,-0.0104637481272221,-0.12151555110706072,9.74819503910101,-0.6734913675973554
1743286186565360128,0.146642774343491,-0.0052311671897769,-0.00697308918461204,-0.12137905880369254,9.655751272941773,-0.6460310921344822
1743286186570349824,0.0785749331116676,-0.00348583795130253,-0.00522775994613767,-0.12124257302169575,9.563311923589326,-0.6185721286771254
1743286186575330048,0.00701643479987979,-0.00348583795130253,-0.0034824307076633,-0.12127385138283409,9.509896483448538,-0.5840108841226803
1743286186580320000,-0.0593060739338398,-0.0052311671897769,0.00175355689134449,-0.1217097920924462,9.550203930726935,-0.5320957713213139
1743286186585309952,-0.111665956676006,-0.0052311671897769,0.00175355689134449,-0.12214575363156328,9.590513303919009,-0.48017817798514895
1743286186590300160,-0.13435523211956,-0.0052311671897769,0.00349888624623418,-0.12256032676903218,9.634818421657473,-0.4340789785664481
1743286186595279872,-0.12562857568264,-0.0052311671897769,0.00698954472318292,-0.12283875184517669,9.704308345337331,-0.42487982724278134
1743286186600270080,-0.101193979382515,-0.00872182566672564,0.00175355689134449,-0.12311775011413366,9.773941327700499,-0.415661737655749
1743286186605259776,-0.0697780549526215,-0.00697649642825127,-0.00173710158560425,-0.12339673505302523,9.84357098311754,-0.40644408849344604
1743286186610249984,-0.0278901495039463,-0.00697649642825127,8.22767106001265e-06,-0.12926079291052922,9.82116568718684,-0.4440801353516668
1743286186615230208,0.0157430805265903,-0.00697649642825127,-0.00173710158560425,-0.13523889541120707,9.796732049157246,-0.4826961192368669
1743286186620219904,0.0331963747739792,-0.0052311671897769,-0.0034824307076633,-0.14122873202728742,9.77225045157388,-0.5213879004860699
1743286186625210112,0.0471590086817741,-0.00697649642825127,-0.00173710158560425,-0.14724851187849816,9.721412422582661,-0.5406153462274561
1743286186630199808,0.0314510427415371,-0.00348583795130253,-0.00522775994613767,-0.15327452990707796,9.664777559401081,-0.5555584961957295
1743286186635180032,0.00178044685162604,-0.00174050882924348,8.22767106001265e-06,-0.15928874294071432,9.608253644157312,-0.5704723724696698
1743286186640169984,-0.0401074551045895,-0.0052311671897769,0.00175355689134449,-0.16149428405980967,9.601279602758733,-0.5542616173260704
1743286186645159936,-0.0907220020890236,0.00175014964770526,0.00175355689134449,-0.16174333436287092,9.619735620516296,-0.5220992172844932
1743286186650140160,-0.129119247198105,4.82044697491801e-06,8.22767106001265e-06,-0.16199189677532935,9.63815548285659,-0.48999982352136706
1743286186655129856,-0.153553858399391,0.00175014964770526,0.00175355689134449,-0.15915829037856669,9.675587584861944,-0.453879747383439
1743286186660120064,-0.144827201962471,0.00349547900259495,0.00175355689134449,-0.15327835051743807,9.731773129211136,-0.41384707680488075
1743286186665100032,-0.109920628368855,4.82044697491801e-06,0.00175355689134449,-0.14741020986673312,9.787845926648593,-0.37389473934454037
1743286186670089984,-0.0383621267974377,4.82044697491801e-06,8.22767106001265e-06,-0.14137648658439558,9.829042347582627,-0.351804976297479
1743286186675079936,0.0331963747739792,4.82044697491801e-06,-0.0034824307076633,-0.13504955934514606,9.84174769127546,-0.36382456825893306
1743286186680059904,0.0873015746474266,-0.00174050882924348,-0.0034824307076633,-0.128735630570841,9.8544269322555,-0.3758194663620813
1743286186685050112,0.134425476193428,-0.00174050882924348,-0.00173710158560425,-0.12464966565369243,9.848425624491874,-0.3956477072332002
1743286186690040064,0.158860087394714,0.00175014964770526,-0.00697308918461204,-0.13034615328282856,9.76076434040114,-0.4495629725295129
1743286186695020032,0.13617080450058,0.00175014964770526,-0.0034824307076633,-0.13603093766456606,9.67328315354958,-0.5033674706778207
1743286186700009984,0.0768296048045158,0.00698613747954369,-0.00173710158560425,-0.1413876468018532,9.58799535046553,-0.5563024224276398
1743286186704989952,0.00701643479987979,4.82044697491801e-06,8.22767106001265e-06,-0.13498222103154617,9.584968844681407,-0.575224792729931
1743286186709979904,-0.0593060739338398,0.00349547900259495,8.22767106001265e-06,-0.12856360843172207,9.581936108239523,-0.594186118455356
1743286186714970112,-0.113411284983158,0.00349547900259495,0.00349888624623418,-0.12214499583189795,9.578903371797637,-0.613147444180781
1743286186719950080,-0.139591217041016,0.00175014964770526,0.00524421548470855,-0.12169415202040273,9.652389157846994,-0.5907103299571284
1743286186724940032,-0.12562857568264,0.00524080824106932,8.22767106001265e-06,-0.1221380139758306,9.737534510060726,-0.5620061080184376
1743286186729920000,-0.0854860171675682,4.82044697491801e-06,0.00175355689134449,-0.12258096403139782,9.822504933934987,-0.5333608579642842
1743286186734909952,-0.0243994910269976,4.82044697491801e-06,8.22767106001265e-06,-0.12270463288205954,9.83816500223482,-0.520947577822678
1743286186739900160,0.0436683483421803,4.82044697491801e-06,-0.00173710158560425,-0.12269714504743115,9.825362685246107,-0.5152073518304431
1743286186744879872,0.113481514155865,4.82044697491801e-06,-0.00522775994613767,-0.12268967259631393,9.812586670198652,-0.5094789189446424
1743286186749870080,0.162350744009018,-0.00348583795130253,-0.00522775994613767,-0.12252004652661888,9.782566018080805,-0.5218278429556971
1743286186754849792,0.181549355387688,4.82044697491801e-06,-0.00697308918461204,-0.12222004740055675,9.738725015053541,-0.5487355054416427
1743286186759840000,0.176313370466232,4.82044697491801e-06,-0.0034824307076633,-0.12191943066725469,9.694793756693766,-0.5756985626461644
1743286186764820224,0.134425476193428,4.82044697491801e-06,-0.00522775994613767,-0.1191627874976301,9.652061796068459,-0.6001008419646875
1743286186769809920,0.0733389407396317,-0.00348583795130253,8.22767106001265e-06,-0.11260810380076372,9.610961377405818,-0.6206811334743808
1743286186774790144,3.51176349795423e-05,-0.00348583795130253,-0.0034824307076633,-0.10606626075713312,9.569941474638117,-0.6412211081054895
1743286186779779840,-0.0645420700311661,-0.00348583795130253,0.00175355689134449,-0.10115951121748933,9.55416847327749,-0.6488544827423561
1743286186784760064,-0.108175300061703,-0.00174050882924348,8.22767106001265e-06,-0.1015730225234375,9.620046750466242,-0.6147500444335573
1743286186789750016,-0.122137933969498,-0.00348583795130253,0.00349888624623418,-0.10198736528643516,9.686057490678833,-0.5805770315168989
1743286186794729984,-0.118647269904613,4.82044697491801e-06,8.22767106001265e-06,-0.10238549283222101,9.748320484911094,-0.5471036536925893
1743286186799719936,-0.08723134547472,-0.0052311671897769,8.22767106001265e-06,-0.10259809923547315,9.766902202828138,-0.5211953352097101
1743286186804699904,-0.0505794286727905,4.82044697491801e-06,0.00175355689134449,-0.10281026884582802,9.785445745213869,-0.4953402445192228
1743286186809690112,-0.00694619910791516,-0.00348583795130253,8.22767106001265e-06,-0.10302287524908015,9.804027463130913,-0.4694319260363436
1743286186814670080,0.0262150578200817,-0.00174050882924348,-0.00173710158560425,-0.10289175629303435,9.78243185998656,-0.47985949171839354
1743286186819660032,0.0646122992038727,-0.00348583795130253,8.22767106001265e-06,-0.1027303338500016,9.757280740197935,-0.49348315665603726
1743286186824640000,0.0750842690467834,-0.00348583795130253,8.22767106001265e-06,-0.10256922763422122,9.732178891559933,-0.5070801327761338
1743286186829619968,0.0803202614188194,-0.0052311671897769,8.22767106001265e-06,-0.10715539108257273,9.712221690925078,-0.5299980286203521
1743286186834609920,0.0541403256356716,-0.0052311671897769,-0.0034824307076633,-0.11324460213453906,9.693841659938593,-0.5558959022640599
1743286186839590144,0.013997751288116,-0.00174050882924348,8.22767106001265e-06,-0.11932159403389274,9.675498511957432,-0.5817418069305563
1743286186844579840,-0.033126138150692,0.00175014964770526,-0.00173710158560425,-0.12175514137803808,9.660380903601697,-0.5847361733950601
1743286186849560064,-0.0750140398740768,4.82044697491801e-06,8.22767106001265e-06,-0.12178433711604005,9.647433964789892,-0.5726903860176319
1743286186854500096,-0.104684643447399,4.82044697491801e-06,-0.00173710158560425,-0.12181329803577388,9.634591156853249,-0.5607414816486012
1743286186859440128,-0.109920628368855,4.82044697491801e-06,8.22767106001265e-06,-0.1275997618241065,9.649990025257088,-0.5391814084013585
1743286186864370176,-0.0959579944610596,4.82044697491801e-06,8.22767106001265e-06,-0.14053001257816425,9.70045688499464,-0.5057201242140257
1743286186869309952,-0.0715233832597733,4.82044697491801e-06,-0.00173710158560425,-0.15348590122181077,9.751023809595779,-0.4721924935400074
1743286186874240000,-0.0435981117188931,-0.00174050882924348,8.22767106001265e-06,-0.16448647652375686,9.781716878079807,-0.4503179800193198
1743286186879180032,-0.0156728439033031,0.00175014964770526,0.00175355689134449,-0.1706822743222041,9.763007759220248,-0.45738357189124956
1743286186884120064,3.51176349795423e-05,-0.00174050882924348,-0.0034824307076633,-0.1768780721206513,9.744298640360686,-0.46444916376317935
1743286186889050112,0.00527110556140542,4.82044697491801e-06,8.22767106001265e-06,-0.18225632418123586,9.726423627305326,-0.4722686129147956
1743286186893979904,0.00352577609010041,4.82044697491801e-06,8.22767106001265e-06,-0.18213921669993574,9.713983866714807,-0.48533215143659536
1743286186898919936,-0.0104368580505252,0.00349547900259495,-0.00173710158560425,-0.18202187135645287,9.701518839176575,-0.49842222388904195
1743286186903849984,-0.0296354778110981,0.00175014964770526,8.22767106001265e-06,-0.18190476387515273,9.689079078586056,-0.5114857624108416
1743286186908790016,-0.0435981117188931,-0.00174050882924348,0.00175355689134449,-0.17586815143155293,9.700701097695088,-0.5052873772495934
1743286186913719808,-0.0453434400260448,4.82044697491801e-06,8.22767106001265e-06,-0.1696591335403158,9.713051539192586,-0.49849923438302907
1743286186918649856,-0.0470887720584869,4.82044697491801e-06,-0.0034824307076633,-0.16344981536287223,9.725402577993439,-0.4917107632220862
1743286186923589888,-0.0278901495039463,4.82044697491801e-06,8.22767106001265e-06,-0.15719816191222127,9.73787050428012,-0.4900037441872703
1743286186928519936,3.51176349795423e-05,4.82044697491801e-06,-0.00173710158560425,-0.1509523006932218,9.750334406854224,-0.4894795802296578
1743286186933449984,0.0297057144343853,4.82044697491801e-06,-0.0034824307076633,-0.1447064394742223,9.762798309428328,-0.48895541627204536
1743286186938380032,0.0541403256356716,-0.00174050882924348,8.22767106001265e-06,-0.14246357443462015,9.758991282694415,-0.497311537332879
1743286186943310080,0.0750842690467834,-0.00174050882924348,8.22767106001265e-06,-0.14234639343164157,9.746544014216308,-0.5103832961956002
1743286186948240128,0.0785749331116676,4.82044697491801e-06,8.22767106001265e-06,-0.14222921242866296,9.734096745738201,-0.5234550550583216
1743286186953170176,0.0681029558181763,4.82044697491801e-06,-0.0034824307076633,-0.1389462292698639,9.71219705030095,-0.5400319565365646
1743286186958099968,0.0419230200350285,4.82044697491801e-06,-0.00173710158560425,-0.13243248221470091,9.680650965655053,-0.5601859255814001
1743286186963030016,0.0174884106963873,4.82044697491801e-06,-0.00173710158560425,-0.1259187351595379,9.649104881009155,-0.5803398946262358
1743286186967959808,-0.0121821872889996,-0.00174050882924348,0.00175355689134449,-0.12166013109193201,9.638779518458625,-0.5890328389993366
1743286186972889856,-0.0313808061182499,-0.00348583795130253,8.22767106001265e-06,-0.12184350166814661,9.67025706860206,-0.5751490438682044
1743286186977819904,-0.0418527834117413,4.82044697491801e-06,8.22767106001265e-06,-0.12202687224436123,9.701734618745498,-0.5612652487370722
1743286186982749952,-0.0348714664578438,4.82044697491801e-06,8.22767106001265e-06,-0.12333451921485793,9.729813046628141,-0.5475261067882652
1743286186987680000,-0.019163504242897,4.82044697491801e-06,-0.00173710158560425,-0.1297455317093594,9.742462027227338,-0.5344435810126436
1743286186992600064,0.00352577609010041,-0.00348583795130253,8.22767106001265e-06,-0.13614352251294448,9.75508531592281,-0.5213876277335193
1743286186997529856,0.0244697276502848,4.82044697491801e-06,-0.0034824307076633,-0.14242373498125627,9.767221023177068,-0.5085810483631737
1743286187002459904,0.045413676649332,4.82044697491801e-06,-0.00522775994613767,-0.14237965692313062,9.754539535454892,-0.5091167081920827
1743286187007379968,0.0628669634461403,0.00175014964770526,8.22767106001265e-06,-0.14233566839389755,9.741883805663091,-0.509651280018631
1743286187012310016,0.0681029558181763,-0.00348583795130253,-0.00173710158560425,-0.1422915903357719,9.729202317940915,-0.51018693984754
1743286187017240064,0.0681029558181763,-0.00348583795130253,8.22767106001265e-06,-0.1420957660681351,9.70039695253938,-0.5276481244336718
1743286187022160128,0.0523949973285198,-0.00348583795130253,8.22767106001265e-06,-0.14187611082850868,9.669075658976052,-0.5477762746788251
1743286187027090176,0.0262150578200817,-0.00174050882924348,-0.00173710158560425,-0.14165600852937146,9.63769061786816,-0.5679453913084662
1743286187032009984,3.51176349795423e-05,-0.00348583795130253,0.00349888624623418,-0.1415965479969168,9.637466641274935,-0.577914685858439
1743286187036930048,-0.0243994910269976,4.82044697491801e-06,-0.0034824307076633,-0.14160401594363156,9.650234954925285,-0.5836396656380651
1743286187041860096,-0.0470887720584869,4.82044697491801e-06,-0.00173710158560425,-0.14161149908969514,9.66302925564548,-0.5893762973439729
1743286187046780160,-0.057560745626688,4.82044697491801e-06,8.22767106001265e-06,-0.14167872524366235,9.675622099784212,-0.5848627853127262
1743286187051709952,-0.0627967342734337,4.82044697491801e-06,8.22767106001265e-06,-0.14179612889353885,9.688093018390239,-0.5717661803200964
1743286187056630016,-0.0610514059662819,4.82044697491801e-06,0.00349888624623418,-0.14191329974612152,9.700539208667069,-0.5586955443173924
1743286187061549824,-0.0558154173195362,4.82044697491801e-06,8.22767106001265e-06,-0.13717586327281245,9.712738452168697,-0.5407735737612552
1743286187066469888,-0.0488341003656387,-0.00174050882924348,8.22767106001265e-06,-0.12478776926743702,9.724548517910137,-0.5152061034251785
1743286187071399936,-0.0348714664578438,-0.00174050882924348,8.22767106001265e-06,-0.11237446204495434,9.736382620420382,-0.4895865961752563
1743286187076320000,-0.0226541608572006,4.82044697491801e-06,8.22767106001265e-06,-0.1028211455910555,9.74257050802186,-0.47001353676216057
1743286187081240064,-0.0156728439033031,-0.00348583795130253,-0.00173710158560425,-0.10277710508900795,9.729898769986926,-0.4705487597805121
1743286187086159872,-0.00694619910791516,4.82044697491801e-06,-0.0034824307076633,-0.1027330645869604,9.717227031951992,-0.47108398279886365
1743286187091079936,-0.00345554086379707,4.82044697491801e-06,-0.00173710158560425,-0.10268695142206292,9.705472788778078,-0.4724734310733189
1743286187096000000,-0.00694619910791516,-0.0052311671897769,8.22767106001265e-06,-0.10261377504087978,9.705698478503361,-0.4850166870514496
1743286187100920064,-0.0121821872889996,-0.00174050882924348,8.22767106001265e-06,-0.10254059865969664,9.705924168228645,-0.49755994302958034
1743286187105839872,-0.0243994910269976,4.82044697491801e-06,0.00175355689134449,-0.10246742227851349,9.70614985795393,-0.5101031990077111
1743286187110759936,-0.033126138150692,-0.00174050882924348,8.22767106001265e-06,-0.10244103191588577,9.70037396992721,-0.5114189807886462
1743286187115680000,-0.0383621267974377,0.00175014964770526,8.22767106001265e-06,-0.10241900930597049,9.694037798971646,-0.5116866111689531
1743286187120590080,-0.0435981117188931,0.00524080824106932,-0.00173710158560425,-0.10239703151819209,9.687714523886411,-0.5119536968469933
1743286187125509888,-0.0383621267974377,0.00175014964770526,-0.00173710158560425,-0.0977148473443053,9.690615054347266,-0.5023672348236359
1743286187130429952,-0.033126138150692,4.82044697491801e-06,0.00349888624623418,-0.0915128174061903,9.696528004298404,-0.48956699997407194
1743286187135350016,-0.0261448211967945,0.00349547900259495,8.22767106001265e-06,-0.0853107874680753,9.702440954249544,-0.47676676512450805
1743286187140260096,-0.019163504242897,0.00349547900259495,0.00175355689134449,-0.08095161559733938,9.708538458894699,-0.4714589311954968
1743286187145179904,-0.0174181740731001,0.00175014964770526,8.22767106001265e-06,-0.07782296297398017,9.714781526395166,-0.4711963784626912
1743286187150099968,-0.0121821872889996,4.82044697491801e-06,0.00175355689134449,-0.07469431035062096,9.721024593895633,-0.47093382572988557
1743286187155010048,-0.0156728439033031,0.00524080824106932,-0.0034824307076633,-0.07431831701067797,9.721774869520182,-0.4709022728249124
1743286187159930112,-0.0104368580505252,0.00698613747954369,-0.00173710158560425,-0.07744490429486796,9.715535923299193,-0.4711646522369604
1743286187164839936,-0.00345554086379707,0.00349547900259495,-0.0034824307076633,-0.08056512810425973,9.709309675069154,-0.4714264976339228
1743286187169760000,0.0105070928111672,0.00524080824106932,8.22767106001265e-06,-0.08283332101126276,9.710158782493457,-0.4713898126676419
1743286187174670080,0.0262150578200817,0.00175014964770526,0.00175355689134449,-0.08289933372808571,9.729152191618493,-0.4705875717122709
1743286187179589888,0.0471590086817741,4.82044697491801e-06,-0.0034824307076633,-0.08296548107315507,9.748184336452146,-0.4697836946434627
1743286187184499968,0.0663576275110245,0.00698613747954369,-0.00522775994613767,-0.08375326477626989,9.760309755847018,-0.473099973063213
1743286187189410048,0.0803202614188194,0.00524080824106932,8.22767106001265e-06,-0.08972712792699368,9.72308719497881,-0.5060086971361597
1743286187194329856,0.0820655897259712,0.00698613747954369,8.22767106001265e-06,-0.0957131743472295,9.685788721342004,-0.5389845362140138
1743286187199239936,0.0768296048045158,0.00349547900259495,8.22767106001265e-06,-0.1016870374979533,9.648566160473795,-0.5718932602869605
1743286187204150016,0.0576309822499752,0.00349547900259495,0.00349888624623418,-0.10788344416947057,9.65382442033987,-0.5909430807111127
1743286187209059840,0.0314510427415371,0.00524080824106932,-0.0034824307076633,-0.11408832003591698,9.660699345343017,-0.6094654817968487
1743286187213979904,0.00352577609010041,0.00524080824106932,8.22767106001265e-06,-0.12030585030589797,9.667588291267313,-0.6280256580037655
1743286187218889984,-0.019163504242897,0.00349547900259495,8.22767106001265e-06,-0.1266582384379133,9.674008467301029,-0.6212765938324606
1743286187223800064,-0.033126138150692,4.82044697491801e-06,0.00175355689134449,-0.13304601921116485,9.6803195353425,-0.6084641430003507
1743286187228709888,-0.0383621267974377,0.00524080824106932,0.00175355689134449,-0.13943379998441638,9.686630603383971,-0.5956516921682408
1743286187233619968,-0.0278901495039463,0.0104767959564924,8.22767106001265e-06,-0.14183630076320836,9.704984837514854,-0.5741977440220227
1743286187238530048,-0.0139275165274739,0.00524080824106932,0.00349888624623418,-0.14207077097971224,9.729890669572322,-0.5480427384075808
1743286187243439872,3.51176349795423e-05,0.00524080824106932,0.00175355689134449,-0.1423052411962161,9.754796501629789,-0.5218877327931388
1743286187248349952,0.0122524220496416,0.00175014964770526,-0.00173710158560425,-0.14549153335086665,9.761357834539469,-0.5088275839262344
1743286187253259776,0.0244697276502848,0.00524080824106932,-0.0034824307076633,-0.1517400341366416,9.748888655175337,-0.5093519886658472
1743286187258169856,0.0262150578200817,0.00349547900259495,-0.00173710158560425,-0.15798853492241657,9.736419475811205,-0.50987639340546
1743286187263070208,0.0262150578200817,0.00175014964770526,8.22767106001265e-06,-0.16214109056606824,9.721814254523922,-0.5104917599405228
1743286187267980032,0.0192337408661842,0.00175014964770526,-0.0034824307076633,-0.1620749915395297,9.702796012066436,-0.5112950120399327
1743286187272890112,0.0105070928111672,0.00524080824106932,0.00349888624623418,-0.16200889251299117,9.68377776960895,-0.5120982641393425
1743286187277800192,-0.00345554086379707,0.00524080824106932,8.22767106001265e-06,-0.1619555353476156,9.670269083760232,-0.5137562081210885
1743286187282700032,-0.019163504242897,4.82044697491801e-06,8.22767106001265e-06,-0.16196300655176815,9.683042966811236,-0.5194836850751265
1743286187287610112,-0.0296354778110981,0.00698613747954369,8.22767106001265e-06,-0.16197049302404906,9.695842954527874,-0.5252228666823405
1743286187292509952,-0.0366167947649956,0.00175014964770526,-0.00173710158560425,-0.1619775425870362,9.708343543436811,-0.530872236245666
1743286187297420032,-0.0401074551045895,0.00175014964770526,8.22767106001265e-06,-0.16195549409958648,9.701999927201928,-0.531140181103431
1743286187302330112,-0.0435981117188931,0.00873146671801805,-0.00173710158560425,-0.16193344561213674,9.695656310967047,-0.5314081259611959
1743286187307229952,-0.0401074551045895,0.00175014964770526,0.00349888624623418,-0.16191144209101085,9.689325632086824,-0.5316755243644583
1743286187312130048,-0.0383621267974377,0.00524080824106932,8.22767106001265e-06,-0.1619147026201236,9.699370033425039,-0.5366229900969569
1743286187317039872,-0.0296354778110981,0.00175014964770526,0.00349888624623418,-0.16192218909240455,9.712169718848791,-0.5423621717041706
1743286187321939968,-0.0296354778110981,0.00698613747954369,8.22767106001265e-06,-0.16192966029655712,9.724943300223412,-0.5480896486582084
1743286187326850048,-0.0226541608572006,0.00175014964770526,-0.00173710158560425,-0.1619420959905682,9.7242889036211,-0.5456206973379556
1743286187331749888,-0.019163504242897,0.00524080824106932,0.00175355689134449,-0.16195663770806695,9.71784183340392,-0.539621944073358
1743286187336649984,-0.0139275165274739,0.00175014964770526,8.22767106001265e-06,-0.1619711794255657,9.711394763186739,-0.5336231908087603
1743286187341550080,-0.0104368580505252,0.00349547900259495,8.22767106001265e-06,-0.16196999273085594,9.71192088426706,-0.5341127264337541
1743286187346460160,-0.00694619910791516,0.00349547900259495,8.22767106001265e-06,-0.1619554210715229,9.718381229195993,-0.5401238313119967
1743286187351360000,-0.00694619910791516,0.00349547900259495,8.22767106001265e-06,-0.16194087913005387,9.724828398710388,-0.5461226769688697
1743286187356260096,-0.00869152881205082,0.00175014964770526,-0.00173710158560425,-0.1595007617718744,9.723863156456378,-0.5500291737687883
1743286187361159936,-0.00694619910791516,-0.00174050882924348,8.22767106001265e-06,-0.15316483687780158,9.710992562001179,-0.5505750706927008
1743286187366060032,-0.00345554086379707,4.82044697491801e-06,-0.00173710158560425,-0.14682891198372877,9.69812196754598,-0.5511209676166133
1743286187370959872,3.51176349795423e-05,4.82044697491801e-06,-0.0034824307076633,-0.14049869105235913,9.68954410005636,-0.5528943555531375
1743286187375859968,0.00178044685162604,0.00175014964770526,8.22767106001265e-06,-0.13418817314603573,9.695794468886074,-0.5589078283962516
1743286187380760064,0.00352577609010041,0.00349547900259495,-0.00173710158560425,-0.12787765523971234,9.702044837715787,-0.5649213012393658
1743286187385659904,0.00527110556140542,-0.00348583795130253,8.22767106001265e-06,-0.12199455954588437,9.707866690336168,-0.5701075624538489
1743286187390560000,0.00527110556140542,4.82044697491801e-06,-0.00173710158560425,-0.12203113796268687,9.707753717305902,-0.5638371816902982
1743286187395459840,0.00527110556140542,4.82044697491801e-06,8.22767106001265e-06,-0.12206771637948939,9.707640744275636,-0.5575668009267475
1743286187400360192,-0.00520086986944079,0.00175014964770526,-0.00173710158560425,-0.1221042965760903,9.707527765748434,-0.5512961150648723
1743286187405250048,-0.0121821872889996,-0.0052311671897769,8.22767106001265e-06,-0.11644291446725359,9.712988908982464,-0.5448052287377326
1743286187410150144,-0.0121821872889996,-0.0052311671897769,8.22767106001265e-06,-0.11020556047422855,9.719013331751638,-0.5382779400537453
1743286187415049984,-0.0121821872889996,4.82044697491801e-06,8.22767106001265e-06,-0.1039682064812035,9.725037754520812,-0.5317506513697579
1743286187419950080,-0.00520086986944079,4.82044697491801e-06,8.22767106001265e-06,-0.10251426725398971,9.731046720360274,-0.5157876219024785
1743286187424839936,0.00527110556140542,-0.00174050882924348,8.22767106001265e-06,-0.10264585276060378,9.737038292498614,-0.4967354771284549
1743286187429740032,0.020979069173336,4.82044697491801e-06,-0.00173710158560425,-0.10277770772559316,9.743042134067952,-0.47764431772349464
1743286187434629888,0.0419230200350285,4.82044697491801e-06,-0.00173710158560425,-0.10280516749152192,9.737973142365878,-0.47020771816932644
1743286187439529984,0.0506496652960777,-0.00174050882924348,-0.0034824307076633,-0.10276107966093746,9.725287786529297,-0.4707435163700942
1743286187444420096,0.0523949973285198,-0.00174050882924348,8.22767106001265e-06,-0.10271707978291499,9.712627737212241,-0.47127824568577875
1743286187449320192,0.0436683483421803,4.82044697491801e-06,-0.00173710158560425,-0.10536389821319646,9.700177182834155,-0.4799918677743099
1743286187454210048,0.0314510427415371,-0.00348583795130253,8.22767106001265e-06,-0.1114974791025165,9.688056790139669,-0.49930059921954
1743286187459110144,0.0105070928111672,4.82044697491801e-06,-0.00173710158560425,-0.1176436202257396,9.675911577528403,-0.5186488707291631
1743286187464000000,-0.00345554086379707,4.82044697491801e-06,8.22767106001265e-06,-0.12207994798468515,9.668916743506816,-0.5342830622042773
1743286187468889856,-0.0243994910269976,4.82044697491801e-06,8.22767106001265e-06,-0.12206540776768568,9.67536314847767,-0.5402811587524612
1743286187473789952,-0.0261448211967945,0.00175014964770526,0.00175355689134449,-0.1220508377754978,9.681822754277816,-0.5462915380922114
1743286187478679808,-0.0313808061182499,4.82044697491801e-06,8.22767106001265e-06,-0.12278662532294805,9.688279717628065,-0.5515453986358371
1743286187483570176,-0.0261448211967945,0.00175014964770526,0.00175355689134449,-0.12910019820319493,9.694815484157575,-0.5512670505058249
1743286187488460032,-0.0243994910269976,0.00524080824106932,8.22767106001265e-06,-0.1354134632694454,9.701350932040187,-0.5509887159464885
1743286187493360128,-0.0156728439033031,0.00175014964770526,8.22767106001265e-06,-0.14173965652354484,9.707899763092524,-0.5507098114187712
1743286187498249984,-0.00694619910791516,0.00698613747954369,-0.00173710158560425,-0.13600459671461396,9.707743241479177,-0.538657236032975
1743286187503140096,-0.00869152881205082,4.82044697491801e-06,8.22767106001265e-06,-0.12978242104683257,9.707316162381515,-0.5261286260538298
1743286187508029952,-0.0121821872889996,0.00175014964770526,8.22767106001265e-06,-0.12356024537905119,9.706889083283855,-0.5136000160746846
1743286187512919808,-0.00694619910791516,4.82044697491801e-06,0.00175355689134449,-0.12230918875920092,9.706895952632973,-0.5161755625794937
1743286187517810176,-0.00345554086379707,0.00524080824106932,-0.00173710158560425,-0.12227263599372025,9.707008846438722,-0.522441546117328
1743286187522700032,-0.0121821872889996,0.00175014964770526,8.22767106001265e-06,-0.12223608501034505,9.707121734740408,-0.5287072241613522
1743286187527590144,-0.00869152881205082,4.82044697491801e-06,8.22767106001265e-06,-0.12630457177091858,9.707218947540701,-0.5268883348826469
1743286187532470016,-0.0156728439033031,0.00175014964770526,-0.00173710158560425,-0.13262761066345935,9.707307320221114,-0.5206165890923693
1743286187537359872,-0.0243994910269976,4.82044697491801e-06,8.22767106001265e-06,-0.1389636243280094,9.707395874240817,-0.5143319737826862
1743286187542249984,-0.0261448211967945,0.00175014964770526,8.22767106001265e-06,-0.13914137513660396,9.704258533758168,-0.5112415645908912
1743286187547139840,-0.0348714664578438,0.00524080824106932,-0.0034824307076633,-0.1328240156118485,9.697718847320726,-0.5115200796636848
1743286187552019968,-0.0435981117188931,0.00349547900259495,8.22767106001265e-06,-0.12651928464586998,9.691192233879086,-0.5117980379779224
1743286187556910080,-0.033126138150692,0.00524080824106932,8.22767106001265e-06,-0.12435184987797522,9.69308389830919,-0.5117189313024497
1743286187561799936,-0.0261448211967945,0.00175014964770526,8.22767106001265e-06,-0.13071739256797354,9.712311907638899,-0.5109044912184943
1743286187566680064,-0.0174181740731001,0.00524080824106932,-0.00173710158560425,-0.13706990001696848,9.731500542205477,-0.5100917189299327
1743286187571569920,-0.0121821872889996,0.00349547900259495,8.22767106001265e-06,-0.1412722261316834,9.745297335764949,-0.5105730729759714
1743286187576459776,-0.00520086986944079,-0.00174050882924348,-0.00173710158560425,-0.13489212907475176,9.732524702909197,-0.5173934325490637
1743286187581340160,3.51176349795423e-05,4.82044697491801e-06,0.00175355689134449,-0.12852478599048395,9.719777602864129,-0.5242001580537747
1743286187586230016,3.51176349795423e-05,0.00349547900259495,-0.00173710158560425,-0.12230097839080109,9.707162992123648,-0.5308594507265423
1743286187591109888,3.51176349795423e-05,0.00175014964770526,0.00175355689134449,-0.12862812340668722,9.707251422192465,-0.5245836321221885
1743286187595990016,3.51176349795423e-05,0.00175014964770526,8.22767106001265e-06,-0.13495526842257338,9.707339852261285,-0.5183078135178347
1743286187600879872,3.51176349795423e-05,4.82044697491801e-06,0.00175355689134449,-0.14129539663616653,9.707428463787155,-0.5120191170367279
1743286187605760000,0.00178044685162604,0.00175014964770526,-0.00173710158560425,-0.14226600939522674,9.712756814394428,-0.5055237158996796
1743286187610640128,0.00527110556140542,0.00349547900259495,8.22767106001265e-06,-0.1423245688884024,9.718977003948183,-0.4989913002190818
1743286187615529984,0.0122524220496416,0.00524080824106932,8.22767106001265e-06,-0.14238324854469675,9.725209957228792,-0.4924454801287426
1743286187620409856,0.0192337408661842,4.82044697491801e-06,8.22767106001265e-06,-0.14233474530926132,9.722841542272446,-0.49938016968804466
1743286187625289984,0.0297057144343853,4.82044697491801e-06,8.22767106001265e-06,-0.14223963299814443,9.716734133150695,-0.5121776775733845
1743286187630170112,0.0366870313882828,4.82044697491801e-06,-0.00173710158560425,-0.14214451604014894,9.71062642564077,-0.5249758107033933
1743286187635049984,0.0384323634207249,4.82044697491801e-06,-0.00173710158560425,-0.142041562365374,9.707979766044094,-0.5409998767047718
1743286187639940096,0.0366870313882828,4.82044697491801e-06,8.22767106001265e-06,-0.14193161967117576,9.708319008599362,-0.5598457312216522
1743286187644819968,0.0297057144343853,0.00175014964770526,-0.00173710158560425,-0.14182190211560047,9.708657556459977,-0.5786529935449827
1743286187649699840,0.013997751288116,4.82044697491801e-06,8.22767106001265e-06,-0.14412922549128118,9.706572935380521,-0.592777833116763
1743286187654580224,0.00527110556140542,4.82044697491801e-06,-0.00173710158560425,-0.15036156267292675,9.700553360435972,-0.5992998315943099
1743286187659450112,-0.00694619910791516,4.82044697491801e-06,8.22767106001265e-06,-0.15658080734889004,9.694546431039452,-0.6058081290637697
1743286187664329984,-0.0121821872889996,-0.00348583795130253,8.22767106001265e-06,-0.15870356754934353,9.69251309263901,-0.6094125451570056
1743286187669209856,-0.0104368580505252,0.00524080824106932,0.00175355689134449,-0.1461948271662485,9.704672125124546,-0.6026297342394729
1743286187674089984,-0.00869152881205082,4.82044697491801e-06,8.22767106001265e-06,-0.13368608678315344,9.71683115761008,-0.5958469233219401
1743286187678970112,-0.00520086986944079,-0.00174050882924348,-0.0034824307076633,-0.12194930239013556,9.727838912569839,-0.5887257523062229
1743286187683849984,-0.00345554086379707,4.82044697491801e-06,0.00175355689134449,-0.12200045394133974,9.721271569018725,-0.5764474912864485
1743286187688719872,0.00527110556140542,4.82044697491801e-06,8.22767106001265e-06,-0.12205150053040055,9.71471770154877,-0.5641944250567282
1743286187693600000,0.00701643479987979,4.82044697491801e-06,-0.0034824307076633,-0.12210265208160473,9.708150357997658,-0.5519161640369538
1743286187698479872,0.0122524220496416,4.82044697491801e-06,-0.0034824307076633,-0.12781265058714122,9.701867204920802,-0.5452967182905448
1743286187703350016,0.00527110556140542,-0.00174050882924348,8.22767106001265e-06,-0.13411333563638128,9.695626876821965,-0.5392926531574618
1743286187708230144,-0.0017102116253227,-0.00174050882924348,0.00349888624623418,-0.1404266670892547,9.68937402346479,-0.5332765369806396
