#timestamp [ns],w_RS_S_x [rad s^-1],w_RS_S_y [rad s^-1],w_RS_S_z [rad s^-1],a_RS_S_x [m s^-2],a_RS_S_y [m s^-2],a_RS_S_z [m s^-2]
1743283787381190144,0.0,0.0,0.0,0.0956148356199265,9.786616684666036,-0.44475501740033385
1743283787386200064,-0.00106529693584889,0.00426118774339557,0.00213059387169778,0.0956148356199265,9.804900114698356,-0.4508494560860716
1743283787391200000,0.00106529693584889,-0.00106529693584889,-0.00426118774339557,0.0956148356199265,9.823147870594124,-0.4569320034670877
1743283787396199936,0.00213059387169778,0.0,-0.003195890923962,0.0956148356199265,9.82920551300049,-0.458951205015182
1743283787401200128,0.00213059387169778,-0.003195890923962,0.00106529693584889,0.0956148356199265,9.82920551300049,-0.458951205015182
1743283787406199808,-0.00213059387169778,-0.003195890923962,-0.00213059387169778,0.0956148356199265,9.82920551300049,-0.458951205015182
1743283787411209984,0.0,-0.00106529693584889,-0.003195890923962,0.0956148356199265,9.83240471442519,-0.458951205015182
1743283787416209920,-0.00106529693584889,-0.00745707890018821,-0.003195890923962,0.0956148356199265,9.838486706364032,-0.458951205015182
1743283787421210112,-0.00213059387169778,-0.00213059387169778,-0.00426118774339557,0.0956148356199265,9.84456898832204,-0.458951205015182
1743283787426210048,0.00106529693584889,-0.00745707890018821,-0.00213059387169778,0.0932914250232339,9.846004328413494,-0.458951205015182
1743283787431209984,-0.00213059387169778,-0.00426118774339557,-0.00106529693584889,0.08720896752306699,9.839922138702123,-0.458951205015182
1743283787436219904,0.00639178184792399,-0.00852237548679113,-0.00106529693584889,0.08111461889389443,9.833828058385269,-0.458951205015182
1743283787441220096,0.00213059387169778,-0.00532648479565978,-0.00426118774339557,0.0764918699860573,9.82920551300049,-0.4574914748526484
1743283787446220032,0.0,-0.00213059387169778,-0.00426118774339557,0.0764918699860573,9.82920551300049,-0.4514092175034548
1743283787451219968,0.003195890923962,-0.003195890923962,-0.003195890923962,0.0764918699860573,9.82920551300049,-0.44532667012243865
1743283787456219904,-0.00213059387169778,-0.00213059387169778,-0.00426118774339557,0.07707569541748185,9.82920551300049,-0.43924442162793614
1743283787461230080,0.00213059387169778,-0.0106529695913196,-0.00639178184792399,0.08317033407419115,9.82920551300049,-0.433149785345785
1743283787466230016,-0.00106529693584889,-0.00532648479565978,-0.00426118774339557,0.08925250154682134,9.82920551300049,-0.42706762024285405
1743283787471229952,0.00213059387169778,-0.00745707890018821,-0.00745707890018821,0.09533495904698824,9.82920551300049,-0.42098516511249934
1743283787476229888,0.0,-0.00532648479565978,-0.00213059387169778,0.0956148356199265,9.82920551300049,-0.4323100419296093
1743283787481230080,-0.00106529693584889,-0.00213059387169778,-0.00213059387169778,0.0956148356199265,9.82920551300049,-0.44447513669164185
1743283787486240000,0.00213059387169778,-0.00213059387169778,-0.00213059387169778,0.0956148356199265,9.82920551300049,-0.45666401406311763
1743283787491239936,0.00213059387169778,-0.00532648479565978,-0.00106529693584889,0.0956148356199265,9.82920551300049,-0.458951205015182
1743283787496239872,0.00106529693584889,-0.00213059387169778,-0.00639178184792399,0.0956148356199265,9.82920551300049,-0.458951205015182
1743283787501240064,-0.00532648479565978,-0.00106529693584889,-0.00745707890018821,0.0956148356199265,9.82920551300049,-0.458951205015182
1743283787506240000,0.00213059387169778,-0.00745707890018821,-0.00213059387169778,0.0956148356199265,9.82920551300049,-0.45488821083622266
1743283787511249920,0.00213059387169778,-0.00532648479565978,-0.00532648479565978,0.0956148356199265,9.82920551300049,-0.4487935745540719
1743283787516249856,0.00106529693584889,-0.00639178184792399,-0.003195890923962,0.0956148356199265,9.82920551300049,-0.4427114094511412
1743283787521250048,0.00106529693584889,-0.00745707890018821,-0.00639178184792399,0.09881417790019487,9.82920551300049,-0.439828246831894
1743283787526249984,-0.003195890923962,-0.00852237548679113,-0.00745707890018821,0.10489643761912405,9.82920551300049,-0.439828246831894
1743283787531249920,0.00106529693584889,-0.00532648479565978,-0.00426118774339557,0.11097898736998872,9.82920551300049,-0.439828246831894
1743283787536259840,0.0,-0.00213059387169778,-0.00213059387169778,0.11240220950056098,9.82920551300049,-0.439828246831894
1743283787541260032,-0.00213059387169778,-0.00532648479565978,-0.00426118774339557,0.10631975200039398,9.82920551300049,-0.439828246831894
1743283787546260224,0.00213059387169778,-0.00532648479565978,-0.00639178184792399,0.10023729450022698,9.82920551300049,-0.439828246831894
1743283787551259904,-0.00213059387169778,-0.00213059387169778,-0.00639178184792399,0.0956148356199265,9.82920551300049,-0.439828246831894
1743283787556260096,0.00106529693584889,-0.003195890923962,-0.00532648479565978,0.0956148356199265,9.82920551300049,-0.439828246831894
1743283787561270016,0.00213059387169778,-0.00852237548679113,-0.00532648479565978,0.0956148356199265,9.82920551300049,-0.439828246831894
1743283787566270208,-0.00213059387169778,-0.003195890923962,-0.003195890923962,0.0956148356199265,9.82920551300049,-0.439828246831894
1743283787571269888,-0.00213059387169778,-0.00426118774339557,-0.003195890923962,0.0956148356199265,9.82920551300049,-0.439828246831894
1743283787576270080,-0.00106529693584889,-0.003195890923962,-0.00745707890018821,0.0956148356199265,9.82920551300049,-0.439828246831894
1743283787581270016,0.00426118774339557,-0.00958767253905535,-0.00426118774339557,0.0956148356199265,9.82920551300049,-0.439828246831894
1743283787586280192,-0.00213059387169778,-0.00852237548679113,-0.00213059387169778,0.089799985345509,9.82920551300049,-0.439828246831894
1743283787591279872,0.003195890923962,-0.00852237548679113,-0.00745707890018821,0.08371772562657989,9.82920551300049,-0.439828246831894
1743283787596280064,0.00426118774339557,-0.00532648479565978,-0.00426118774339557,0.07763517587571532,9.82920551300049,-0.439828246831894
1743283787601280000,0.0,-0.00532648479565978,-0.00532648479565978,0.08143074890892313,9.82920551300049,-0.439828246831894
1743283787606280192,0.003195890923962,-0.00852237548679113,0.0,0.08751320640909004,9.82920551300049,-0.439828246831894
1743283787611289856,-0.00213059387169778,-0.00639178184792399,-0.003195890923962,0.0936075550382626,9.82920551300049,-0.439828246831894
1743283787616290048,0.00213059387169778,-0.003195890923962,-0.00639178184792399,0.0956148356199265,9.82920551300049,-0.439828246831894
1743283787621289984,-0.00213059387169778,-0.00852237548679113,-0.003195890923962,0.0956148356199265,9.82920551300049,-0.439828246831894
1743283787626290176,0.00213059387169778,-0.00745707890018821,-0.00532648479565978,0.0956148356199265,9.82920551300049,-0.439828246831894
1743283787631289856,-0.00106529693584889,-0.003195890923962,-0.00213059387169778,0.09242772301887109,9.82920551300049,-0.4430153581912047
1743283787636290048,0.00426118774339557,-0.00852237548679113,-0.00532648479565978,0.08634526551870418,9.82920551300049,-0.44909781332155907
1743283787641299968,0.0,-0.003195890923962,-0.00532648479565978,0.0802509168895316,9.82920551300049,-0.45519215957628617
1743283787646300160,0.0,-0.0106529695913196,-0.00639178184792399,0.07881531582117918,9.826882053586653,-0.45662776008530787
1743283787651299840,0.00426118774339557,-0.00639178184792399,-0.00106529693584889,0.08489757554010827,9.820799758321694,-0.45054550273611427
1743283787656300032,0.00213059387169778,-0.00639178184792399,-0.00745707890018821,0.09098012529097285,9.814717173023105,-0.4444629553550981
1743283787661299968,0.00213059387169778,-0.00639178184792399,0.00106529693584889,0.09416728622995105,9.811529993457675,-0.439828246831894
1743283787666310144,-0.003195890923962,-0.00532648479565978,0.0,0.08807255513779635,9.817624760168744,-0.439828246831894
1743283787671309824,0.00213059387169778,-0.00745707890018821,-0.00213059387169778,0.08199029541886727,9.823707055433703,-0.439828246831894
1743283787676310016,0.0,-0.00639178184792399,-0.00213059387169778,0.07707598544501858,9.82920551300049,-0.4404123620632755
1743283787681309952,0.00213059387169778,-0.00532648479565978,-0.003195890923962,0.08315815291764876,9.82920551300049,-0.4464945271662062
1743283787686320128,0.00213059387169778,-0.00852237548679113,0.0,0.08925279157435806,9.82920551300049,-0.452589163448357
1743283787691320064,0.00106529693584889,-0.00639178184792399,-0.00745707890018821,0.09533495904698824,9.82920551300049,-0.45867132855128767
1743283787696320000,0.00213059387169778,-0.00958767253905535,-0.00106529693584889,0.0898121666867991,9.82920551300049,-0.458951205015182
1743283787701319936,-0.003195890923962,-0.00745707890018821,0.0,0.08372990696787001,9.82920551300049,-0.458951205015182
1743283787706320128,0.00426118774339557,-0.00639178184792399,-0.00426118774339557,0.07764735721700544,9.82920551300049,-0.458951205015182
1743283787711319808,-0.003195890923962,-0.00426118774339557,-0.00958767253905535,0.08141543148813432,9.82920551300049,-0.46387476459896926
1743283787716329984,-0.00213059387169778,-0.00213059387169778,-0.003195890923962,0.08750619038638867,9.82920551300049,-0.46996552112417705
1743283787721329920,-0.00106529693584889,-0.00639178184792399,-0.003195890923962,0.09358448603953858,9.82920551300049,-0.47604381440913623
1743283787726330112,0.00426118774339557,-0.00852237548679113,-0.003195890923962,0.0956148356199265,9.82920551300049,-0.4699724142693604
1743283787731329792,-0.00213059387169778,-0.00213059387169778,-0.003195890923962,0.0956148356199265,9.82920551300049,-0.4578078995709728
1743283787736329984,0.00213059387169778,-0.003195890923962,-0.00106529693584889,0.0956148356199265,9.82920551300049,-0.44564280480894025
1743283787741339904,0.00106529693584889,-0.00958767253905535,-0.00213059387169778,0.0956148356199265,9.82920551300049,-0.439828246831894
1743283787746340096,0.00106529693584889,-0.00852237548679113,-0.00532648479565978,0.0956148356199265,9.82920551300049,-0.439828246831894
1743283787751340032,0.003195890923962,-0.00532648479565978,-0.00426118774339557,0.0956148356199265,9.82920551300049,-0.439828246831894
1743283787756339968,0.0,-0.00852237548679113,-0.00106529693584889,0.0956148356199265,9.82920551300049,-0.442139510425224
1743283787761339904,-0.003195890923962,-0.00426118774339557,-0.00213059387169778,0.0956148356199265,9.82920551300049,-0.44822176777441763
1743283787766350080,-0.00213059387169778,-0.00532648479565978,-0.00213059387169778,0.0956148356199265,9.82920551300049,-0.45431649649197786
1743283787771350016,0.0,-0.00426118774339557,-0.00532648479565978,0.09416730818413911,9.82920551300049,-0.457503678143372
1743283787776349952,0.00106529693584889,-0.003195890923962,-0.003195890923962,0.0880848506839722,9.82920551300049,-0.4514212230130176
1743283787781349888,0.00106529693584889,-0.00745707890018821,-0.00426118774339557,0.08200268321134202,9.82920551300049,-0.445339057910087
1743283787786350080,0.003195890923962,-0.0138488598167896,-0.00426118774339557,0.0764918699860573,9.82977714077749,-0.44039989955399883
1743283787791360000,-0.00106529693584889,-0.003195890923962,-0.00106529693584889,0.0764918699860573,9.835871313521322,-0.44649433823973655
1743283787796359936,0.0,-0.00426118774339557,-0.00213059387169778,0.0764918699860573,9.84195359547933,-0.45257688562075266
1743283787801359872,0.0,-0.00958767253905535,-0.00213059387169778,0.0764918699860573,9.848035587418172,-0.4586591429699463
1743283787806360064,-0.00532648479565978,0.0,-0.00426118774339557,0.0764918699860573,9.84832763671875,-0.4531608075005184
1743283787811360000,0.003195890923962,-0.00745707890018821,0.0,0.0764918699860573,9.84832763671875,-0.4470786423975877
1743283787816369920,-0.00213059387169778,-0.00852237548679113,-0.00426118774339557,0.0764918699860573,9.84832763671875,-0.4409840061154369
1743283787821369856,0.00213059387169778,-0.00532648479565978,-0.003195890923962,0.08140583165524888,9.84832763671875,-0.439828246831894
1743283787826370048,0.0,-0.003195890923962,-0.00213059387169778,0.08747292244332647,9.84832763671875,-0.439828246831894
1743283787831370240,0.003195890923962,-0.00532648479565978,-0.00213059387169778,0.09354001323140407,9.84832763671875,-0.439828246831894
1743283787836369920,-0.00213059387169778,-0.00106529693584889,-0.00213059387169778,0.0956148356199265,9.844328209878865,-0.439828246831894
1743283787841420032,-0.00106529693584889,-0.00639178184792399,-0.00426118774339557,0.0956148356199265,9.838189224452703,-0.439828246831894
1743283787846419968,0.00106529693584889,-0.00958767253905535,-0.00426118774339557,0.0956148356199265,9.832110814445741,-0.439828246831894
1743283787851419904,-0.00213059387169778,-0.00639178184792399,-0.00213059387169778,0.0956148356199265,9.82920551300049,-0.439828246831894
1743283787856430080,0.00426118774339557,-0.003195890923962,-0.00426118774339557,0.0956148356199265,9.82920551300049,-0.439828246831894
1743283787861430016,0.0,-0.00213059387169778,-0.00426118774339557,0.0956148356199265,9.82920551300049,-0.439828246831894
1743283787866429952,-0.00213059387169778,-0.00106529693584889,-0.00213059387169778,0.09330357112609473,9.831516675737634,-0.439828246831894
1743283787871429888,0.00213059387169778,-0.00213059387169778,-0.00213059387169778,0.08722131140716563,9.837598667676476,-0.439828246831894
1743283787876430080,-0.00213059387169778,-0.0117182666435838,-0.003195890923962,0.08113876165630106,9.843680949634484,-0.439828246831894
1743283787881430016,0.0,-0.00106529693584889,-0.00426118774339557,0.07792721626530229,9.84832763671875,-0.439828246831894
1743283787886439936,-0.00532648479565978,-0.00426118774339557,-0.00213059387169778,0.08402185492201159,9.84832763671875,-0.439828246831894
1743283787891439872,0.00213059387169778,-0.00106529693584889,-0.003195890923962,0.09010402239464177,9.84832763671875,-0.439828246831894
1743283787896440064,0.00106529693584889,-0.00213059387169778,-0.003195890923962,0.09504318267509748,9.84775600894175,-0.44039989955399883
1743283787901440000,0.00213059387169778,-0.003195890923962,-0.003195890923962,0.08896092295616839,9.841674017002909,-0.44648215690319243
1743283787906439936,0.0,-0.00958767253905535,-0.00426118774339557,0.0828783732053038,9.835591735044899,-0.4525647042842086
1743283787911449856,0.00426118774339557,-0.00852237548679113,-0.003195890923962,0.0767839321450846,9.829497562301068,-0.4586591429699463
1743283787916450048,-0.00106529693584889,-0.00426118774339557,-0.003195890923962,0.0764918699860573,9.82920551300049,-0.4473702343436209
1743283787921449984,0.0,0.0,-0.00532648479565978,0.0764918699860573,9.82920551300049,-0.43520571964523336
1743283787926449920,0.0,-0.00426118774339557,-0.00213059387169778,0.0764918699860573,9.82920551300049,-0.4230406248832008
1743283787931449856,-0.003195890923962,-0.00532648479565978,-0.00213059387169778,0.08140638659583835,9.82920551300049,-0.42561980334362026
1743283787936460032,-0.00213059387169778,-0.00213059387169778,-0.00213059387169778,0.08750102525254765,9.82920551300049,-0.4317144396257714
1743283787941459968,0.00213059387169778,-0.00426118774339557,-0.00213059387169778,0.09358319272517782,9.82920551300049,-0.43779660472870235
1743283787946459904,0.00106529693584889,-0.00213059387169778,-0.00106529693584889,0.0956148356199265,9.833256210697778,-0.439828246831894
1743283787951459840,-0.00106529693584889,-0.00532648479565978,-0.00106529693584889,0.0956148356199265,9.83933820263662,-0.439828246831894
1743283787956460032,0.0,-0.00106529693584889,-0.00532648479565978,0.0956148356199265,9.845420484594628,-0.439828246831894
1743283787961469952,0.0,-0.00745707890018821,-0.00532648479565978,0.0956148356199265,9.845140664434835,-0.4430153581912047
1743283787966469888,0.00213059387169778,-0.00639178184792399,-0.00106529693584889,0.0956148356199265,9.839058474723462,-0.44909781332155907
1743283787971470080,0.00213059387169778,-0.00639178184792399,-0.003195890923962,0.0956148356199265,9.832976285012089,-0.45518026845191345
1743283787976470016,0.00426118774339557,-0.0106529695913196,-0.00106529693584889,0.0956148356199265,9.831516675737634,-0.456639941421852
1743283787981470208,-0.003195890923962,-0.003195890923962,-0.00532648479565978,0.0956148356199265,9.837598957695642,-0.45055739404083583
1743283787986479872,0.003195890923962,-0.00958767253905535,0.0,0.0956148356199265,9.843693130439474,-0.4444629553550981
1743283787991480064,0.0,-0.00532648479565978,-0.00426118774339557,0.0956148356199265,9.84688080461663,-0.4412751420719166
1743283787996480000,0.00213059387169778,-0.00532648479565978,-0.00426118774339557,0.0956148356199265,9.840802776569044,-0.4473534353568755
1743283788001480192,0.0,-0.00106529693584889,-0.00426118774339557,0.0956148356199265,9.834724458691309,-0.4534320184846309
1743283788006479872,0.003195890923962,-0.00852237548679113,-0.003195890923962,0.0956148356199265,9.8297649599725,-0.458951205015182
1743283788011490048,0.00106529693584889,-0.00639178184792399,-0.00426118774339557,0.0956148356199265,9.8358594227355,-0.458951205015182
1743283788016489984,0.003195890923962,-0.00426118774339557,-0.00639178184792399,0.0956148356199265,9.841941414674341,-0.458951205015182
1743283788021490176,-0.003195890923962,-0.00213059387169778,-0.003195890923962,0.0956148356199265,9.84802369663235,-0.458951205015182
1743283788026489856,0.00213059387169778,-0.00639178184792399,-0.00426118774339557,0.08983661700578262,9.842549672498853,-0.4531729886523148
1743283788031490048,0.00106529693584889,0.0,-0.00639178184792399,0.08375415950561572,9.83646748278748,-0.44709053352196043
1743283788036499968,0.00213059387169778,-0.00745707890018821,-0.00106529693584889,0.07765981087644315,9.830373402470626,-0.44099618726723333
1743283788041500160,0.00426118774339557,-0.00532648479565978,-0.00426118774339557,0.08140646113274813,9.82920551300049,-0.4447428360637897
1743283788046499840,0.00426118774339557,-0.00532648479565978,-0.00213059387169778,0.08748872085167722,9.82920551300049,-0.4508250934129834
1743283788051500032,0.0,-0.00213059387169778,-0.00639178184792399,0.0935712706025418,9.82920551300049,-0.4569076407939995
1743283788056499968,0.00213059387169778,-0.00532648479565978,-0.00426118774339557,0.0956148356199265,9.833243968642815,-0.4549125731398156
1743283788061510144,-0.00106529693584889,-0.00532648479565978,-0.00532648479565978,0.0956148356199265,9.839338338974438,-0.44881793685766475
1743283788066510080,-0.00106529693584889,0.0,-0.00106529693584889,0.0956148356199265,9.845420238671043,-0.4427357717547341
1743283788071510016,0.00106529693584889,-0.00532648479565978,-0.00426118774339557,0.0924398560222384,9.84515279690403,-0.4430032251925646
1743283788076509952,0.0,-0.00639178184792399,-0.00213059387169778,0.08635759630330932,9.839070804965187,-0.4490854825417582
1743283788081510144,-0.00213059387169778,-0.00213059387169778,-0.00532648479565978,0.08027504655244475,9.83298852300718,-0.4551680299227743
1743283788086520064,-0.00106529693584889,-0.00106529693584889,-0.003195890923962,0.07880166314017854,9.82920551300049,-0.45664141276098924
1743283788091520000,-0.00106529693584889,-0.00426118774339557,-0.003195890923962,0.08488034076952111,9.82920551300049,-0.4505627374999865
1743283788096519936,-0.00213059387169778,-0.00639178184792399,-0.00426118774339557,0.0909587285515611,9.82920551300049,-0.4444843520861734
1743283788101520128,-0.00426118774339557,-0.00213059387169778,-0.00426118774339557,0.0956148356199265,9.82920551300049,-0.4412517014275348
1743283788106520064,0.00106529693584889,-0.00745707890018821,-0.003195890923962,0.0956148356199265,9.82920551300049,-0.4473338665304655
1743283788111529984,-0.00213059387169778,-0.003195890923962,-0.003195890923962,0.0956148356199265,9.82920551300049,-0.45342850281261626
1743283788116529920,0.003195890923962,-0.00852237548679113,-0.00213059387169778,0.0956148356199265,9.8297649599725,-0.4595106764007428
1743283788121530112,0.00106529693584889,-0.00532648479565978,-0.003195890923962,0.0956148356199265,9.835847241930509,-0.4655932237817592
1743283788126530048,0.00106529693584889,0.00106529693584889,-0.00639178184792399,0.0956148356199265,9.841929233869351,-0.47167548113095314
1743283788131529984,0.0,-0.00532648479565978,0.0,0.0956148356199265,9.848011515827361,-0.4777580285119696
1743283788136539904,0.00213059387169778,-0.00426118774339557,-0.00639178184792399,0.0956148356199265,9.84832763671875,-0.478074163198471
1743283788141540096,0.0,-0.003195890923962,-0.00426118774339557,0.0956148356199265,9.84832763671875,-0.478074163198471
1743283788146540032,-0.00532648479565978,0.00426118774339557,-0.003195890923962,0.0956148356199265,9.84832763671875,-0.478074163198471
1743283788151539968,0.00106529693584889,-0.00426118774339557,-0.003195890923962,0.0956148356199265,9.843425442748876,-0.47317175530311906
1743283788156539904,0.00213059387169778,-0.00639178184792399,-0.00426118774339557,0.0956148356199265,9.837343450810032,-0.4670894979539251
1743283788161540096,-0.00426118774339557,-0.00852237548679113,-0.00213059387169778,0.0956148356199265,9.831261168852024,-0.4610069505729087
1743283788166550016,0.00106529693584889,-0.00426118774339557,-0.00426118774339557,0.09157620217105066,9.82920551300049,-0.458951205015182
1743283788171549952,-0.003195890923962,-0.003195890923962,-0.00426118774339557,0.08549374467088375,9.82920551300049,-0.458951205015182
1743283788176549888,0.0,-0.003195890923962,-0.00532648479565978,0.07941157719825356,9.82920551300049,-0.458951205015182
1743283788181550080,0.0,-0.00532648479565978,-0.00532648479565978,0.0796526548205023,9.82920551300049,-0.4621119886181401
1743283788186550016,0.0,-0.00958767253905535,-0.003195890923962,0.0857310426025423,9.82920551300049,-0.46819037403195357
1743283788191559936,0.00106529693584889,0.0,-0.00852237548679113,0.09182189381859249,9.82920551300049,-0.47428122287492125
1743283788196559872,0.00213059387169778,-0.00745707890018821,-0.00639178184792399,0.09332796849286107,9.831492279444996,-0.4735004307263324
1743283788201560064,0.00213059387169778,-0.00639178184792399,-0.00213059387169778,0.08724551099269418,9.837574469156369,-0.4613355204656233
1743283788206560000,0.0,-0.00852237548679113,-0.00639178184792399,0.08116334352006399,9.843656368852972,-0.44917119025976165
1743283788211559936,0.00106529693584889,-0.00213059387169778,-0.00106529693584889,0.07790287535216239,9.846916693474151,-0.439828246831894
1743283788216569856,-0.00213059387169778,-0.00426118774339557,-0.00426118774339557,0.0839973164123816,9.84082252073032,-0.439828246831894
1743283788221570048,0.00106529693584889,0.0,-0.00426118774339557,0.09007986616324618,9.834740238772312,-0.439828246831894
1743283788226569984,0.00106529693584889,-0.00958767253905535,0.00106529693584889,0.0956148356199265,9.82920551300049,-0.439828246831894
1743283788231569920,-0.00213059387169778,-0.00745707890018821,-0.003195890923962,0.0956148356199265,9.82920551300049,-0.439828246831894
1743283788236569856,0.0,-0.00426118774339557,-0.00532648479565978,0.0956148356199265,9.82920551300049,-0.439828246831894
1743283788241580032,0.00426118774339557,-0.00958767253905535,-0.00426118774339557,0.0956148356199265,9.82920551300049,-0.439828246831894
1743283788246579968,0.003195890923962,-0.00639178184792399,-0.00426118774339557,0.10136869192098567,9.82345162307266,-0.4340743927726194
1743283788251579904,0.0,-0.00213059387169778,-0.00426118774339557,0.10745114942115268,9.817369130025309,-0.42799193764226473
1743283788256580096,0.00213059387169778,-0.00639178184792399,-0.003195890923962,0.11353360692131968,9.811286636977956,-0.42190948251191
1743283788261580032,0.00106529693584889,-0.00745707890018821,-0.00426118774339557,0.114737801253796,9.814957405879914,-0.420705288648605
1743283788266590208,0.0,-0.00426118774339557,-0.00426118774339557,0.114737801253796,9.821048292692206,-0.420705288648605
1743283788271589888,0.00426118774339557,-0.00639178184792399,-0.003195890923962,0.114737801253796,9.827126715997647,-0.420705288648605
1743283788276590080,0.00213059387169778,-0.003195890923962,-0.0106529695913196,0.11073542124701054,9.82920551300049,-0.4287100455434069
1743283788281590016,0.00106529693584889,-0.00532648479565978,-0.00213059387169778,0.10465325377438026,9.82920551300049,-0.4408743757492685
1743283788286590208,0.00106529693584889,-0.00213059387169778,-0.00745707890018821,0.09857079627421325,9.82920551300049,-0.45303928600997756
1743283788291599872,0.0,-0.00745707890018821,-0.003195890923962,0.0956148356199265,9.832343810400243,-0.458951205015182
1743283788296600064,0.003195890923962,-0.0117182666435838,-0.003195890923962,0.0956148356199265,9.838426092358251,-0.458951205015182
1743283788301600000,0.0,-0.00852237548679113,-0.00745707890018821,0.0956148356199265,9.844508084297093,-0.458951205015182
1743283788306600192,0.0,-0.00426118774339557,-0.00745707890018821,0.09108924549608316,9.84832763671875,-0.4612139989750822
1743283788311599872,0.0,-0.00745707890018821,-0.003195890923962,0.07892490936597313,9.84832763671875,-0.46729616407801317
1743283788316610048,0.00213059387169778,-0.00958767253905535,-0.00426118774339557,0.0667356308652754,9.84832763671875,-0.47339080036016434
1743283788321609984,-0.003195890923962,-0.00213059387169778,-0.00106529693584889,0.05877486841938284,9.846921731099867,-0.478074163198471
1743283788326610176,0.00639178184792399,-0.00745707890018821,-0.00639178184792399,0.0648884816360522,9.840808388234588,-0.478074163198471
1743283788331609856,0.00106529693584889,-0.00532648479565978,-0.00532648479565978,0.07100180333959849,9.834695336869542,-0.478074163198471
1743283788336610048,0.00213059387169778,-0.00532648479565978,-0.00213059387169778,0.07711224829604678,9.828585131064877,-0.47745378513018977
1743283788341619968,-0.003195890923962,-0.00639178184792399,-0.00426118774339557,0.08320668935626599,9.822490654387437,-0.4713593464444517
1743283788346530048,-0.00106529693584889,-0.00532648479565978,-0.003195890923962,0.08917960703551951,9.816517701801173,-0.46538643109233213
1743283788351529984,0.003195890923962,-0.00958767253905535,-0.00639178184792399,0.09526215678638408,9.810435116502584,-0.4593038837113157
1743283788356539904,-0.00213059387169778,-0.00106529693584889,-0.00639178184792399,0.0956148356199265,9.815824231390677,-0.453209445025578
1743283788361540096,-0.00106529693584889,-0.00426118774339557,-0.003195890923962,0.0956148356199265,9.821906816689266,-0.4471268976445618
1743283788366540032,0.00213059387169778,-0.00532648479565978,-0.00532648479565978,0.0956148356199265,9.827989111954224,-0.4410446402953682
1743283788371539968,0.00106529693584889,-0.00639178184792399,0.00213059387169778,0.0956148356199265,9.82920551300049,-0.444694326947147
1743283788376539904,-0.00106529693584889,-0.00213059387169778,-0.003195890923962,0.0956148356199265,9.82920551300049,-0.45077649205007764
1743283788381550080,0.0,-0.00639178184792399,-0.00106529693584889,0.0956148356199265,9.82920551300049,-0.4568711283322285
1743283788386550016,0.00106529693584889,-0.00745707890018821,-0.00426118774339557,0.0956148356199265,9.82920551300049,-0.4509469067784241
1743283788391549952,0.0,-0.00639178184792399,-0.00213059387169778,0.0956148356199265,9.82920551300049,-0.43878181201639155
1743283788396549888,0.003195890923962,-0.00639178184792399,-0.0106529695913196,0.0956148356199265,9.82920551300049,-0.426617297318004
1743283788401550080,0.0,-0.00639178184792399,-0.00213059387169778,0.0956148356199265,9.82920551300049,-0.42695827990410967
1743283788406560000,-0.00106529693584889,-0.00426118774339557,-0.00426118774339557,0.0956148356199265,9.82920551300049,-0.43914697241356415
1743283788411559936,-0.00106529693584889,-0.00426118774339557,-0.00532648479565978,0.0956148356199265,9.82920551300049,-0.45131188267427325
1743283788416559872,0.0,-0.00532648479565978,-0.00639178184792399,0.0956148356199265,9.82920551300049,-0.458951205015182
1743283788421560064,0.00213059387169778,-0.003195890923962,-0.00213059387169778,0.0956148356199265,9.82920551300049,-0.458951205015182
1743283788426560000,0.00106529693584889,-0.00426118774339557,-0.00106529693584889,0.0956148356199265,9.82920551300049,-0.458951205015182
1743283788431570176,0.003195890923962,-0.012783563695848,-0.00532648479565978,0.0956148356199265,9.82920551300049,-0.4575530033649678
1743283788436569856,0.00213059387169778,-0.00213059387169778,-0.00639178184792399,0.0956148356199265,9.82920551300049,-0.4514747100800089
1743283788441570048,0.0,-0.00532648479565978,-0.00745707890018821,0.0956148356199265,9.82920551300049,-0.44539612695225356
1743283788446569984,0.0,-0.00852237548679113,-0.003195890923962,0.09510408938154806,9.82920551300049,-0.44033899287127837
1743283788451569920,0.00106529693584889,-0.003195890923962,-0.00426118774339557,0.08902153963068349,9.82920551300049,-0.44642154025229447
1743283788456569856,-0.00106529693584889,-0.00213059387169778,-0.00213059387169778,0.08293927991175438,9.82920551300049,-0.4525037976014881
1743283788461580032,0.0,-0.00852237548679113,-0.00213059387169778,0.0768445488195997,9.82920551300049,-0.4585985263190483
1743283788466579968,-0.00213059387169778,-0.00213059387169778,-0.00426118774339557,0.0822213639740316,9.82920551300049,-0.45322171325950056
1743283788471579904,-0.00106529693584889,-0.00213059387169778,-0.00426118774339557,0.0883038214741985,9.82920551300049,-0.4471392581291462
1743283788476579840,0.00213059387169778,-0.00852237548679113,-0.00213059387169778,0.09438598894682869,9.82920551300049,-0.44105709302621554
1743283788481590016,0.0,-0.00213059387169778,-0.00532648479565978,0.0956148356199265,9.834068067105335,-0.439828246831894
1743283788486589952,-0.00106529693584889,-0.00213059387169778,-0.00745707890018821,0.0956148356199265,9.840146187277755,-0.439828246831894
1743283788491590144,0.00426118774339557,-0.00639178184792399,0.00106529693584889,0.0956148356199265,9.846224597284719,-0.439828246831894
1743283788496589824,0.0,-0.00106529693584889,-0.00426118774339557,0.0956148356199265,9.84832763671875,-0.439828246831894
1743283788501590016,-0.00106529693584889,-0.00532648479565978,-0.00639178184792399,0.0956148356199265,9.84832763671875,-0.439828246831894
1743283788506589952,0.00213059387169778,-0.00213059387169778,-0.003195890923962,0.0956148356199265,9.84832763671875,-0.439828246831894
1743283788511600128,0.003195890923962,-0.003195890923962,-0.00213059387169778,0.0956148356199265,9.84832763671875,-0.439828246831894
1743283788516599808,-0.00213059387169778,-0.003195890923962,-0.00532648479565978,0.0956148356199265,9.84832763671875,-0.439828246831894
1743283788521600000,-0.00213059387169778,-0.00639178184792399,-0.00213059387169778,0.0956148356199265,9.84832763671875,-0.439828246831894
1743283788526599936,-0.00106529693584889,-0.00106529693584889,-0.00745707890018821,0.0956148356199265,9.846089558811542,-0.439828246831894
1743283788531599872,-0.00106529693584889,0.0,-0.00426118774339557,0.0956148356199265,9.840007276853534,-0.439828246831894
1743283788536609792,0.00106529693584889,-0.00213059387169778,-0.003195890923962,0.0956148356199265,9.833913104109703,-0.439828246831894
1743283788541609984,0.003195890923962,-0.00958767253905535,-0.003195890923962,0.0956148356199265,9.830579307905147,-0.4412021016872039
1743283788546610176,0.0,-0.00426118774339557,-0.00426118774339557,0.0956148356199265,9.836657625782882,-0.4472806848149593
1743283788551610112,-0.00106529693584889,-0.00745707890018821,-0.00213059387169778,0.0956148356199265,9.84273565383047,-0.4533589780999182
1743283788556610048,-0.00106529693584889,-0.00639178184792399,-0.003195890923962,0.0956148356199265,9.847840984557509,-0.458951205015182
1743283788561619968,0.0,-0.00426118774339557,0.00106529693584889,0.0956148356199265,9.841746811813678,-0.458951205015182
1743283788566620160,0.0,-0.00532648479565978,-0.0106529695913196,0.0956148356199265,9.835664529855668,-0.458951205015182
1743283788571620096,0.00106529693584889,-0.00426118774339557,-0.00213059387169778,0.0956148356199265,9.829582537916826,-0.458951205015182
1743283788576620032,0.00106529693584889,-0.00852237548679113,-0.00532648479565978,0.0956148356199265,9.82920551300049,-0.4646566244946946
1743283788581619968,-0.00213059387169778,-0.00532648479565978,-0.00213059387169778,0.0956148356199265,9.82920551300049,-0.47073878959762555
1743283788586630144,0.0,-0.00639178184792399,-0.00852237548679113,0.0956148356199265,9.82920551300049,-0.4768334258797767
1743283788591630080,0.00426118774339557,-0.00532648479565978,-0.00213059387169778,0.09077333252097636,9.82920551300049,-0.4732326619858395
1743283788596630016,0.00213059387169778,-0.00639178184792399,-0.00532648479565978,0.08469078277011179,9.82920551300049,-0.4671501146048231
1743283788601629952,-0.003195890923962,-0.00426118774339557,-0.00213059387169778,0.07860852305118268,9.82920551300049,-0.46106785725562915
1743283788606630144,0.0,-0.00639178184792399,-0.00213059387169778,0.08045770652321552,9.82920551300049,-0.45498537002317047
1743283788611640064,-0.00106529693584889,-0.00532648479565978,-0.00106529693584889,0.08655205515238809,9.82920551300049,-0.44889102376844336
1743283788616640000,0.00426118774339557,-0.003195890923962,-0.00106529693584889,0.092634512652555,9.82920551300049,-0.442808568638089
1743283788621639936,0.00213059387169778,-0.0117182666435838,-0.00106529693584889,0.0956148356199265,9.826103603322423,-0.4429301371733
1743283788626640128,0.0,-0.00532648479565978,-0.00426118774339557,0.0956148356199265,9.820021018023834,-0.44901268455431614
1743283788631640064,-0.00106529693584889,-0.00639178184792399,-0.003195890923962,0.0956148356199265,9.813938722758875,-0.45509494190350974
1743283788636649984,0.00106529693584889,-0.00958767253905535,-0.00532648479565978,0.0933764030914939,9.81679766080681,-0.458951205015182
1743283788641649920,-0.00106529693584889,-0.00639178184792399,-0.00426118774339557,0.08729423561886374,9.835043966539656,-0.458951205015182
1743283788646650112,-0.003195890923962,-0.00745707890018821,-0.00426118774339557,0.08121177811869683,9.853291142345732,-0.458951205015182
1743283788651650048,0.00213059387169778,-0.00532648479565978,-0.003195890923962,0.07512958971973079,9.863363918161888,-0.45758892554500114
1743283788656649984,-0.003195890923962,-0.00532648479565978,-0.00532648479565978,0.06904703878394207,9.845116465606699,-0.45150637816398503
1743283788661659904,0.00106529693584889,-0.00958767253905535,-0.00745707890018821,0.0629525965364822,9.82683333950799,-0.4454119394782473
1743283788666660096,-0.00106529693584889,-0.00106529693584889,-0.00213059387169778,0.05637119072025995,9.81108012641858,-0.43932939209723115
1743283788671660032,0.00106529693584889,-0.003195890923962,-0.003195890923962,0.04420667068996796,9.82324441362238,-0.4332471347480372
1743283788676659968,0.00426118774339557,-0.00426118774339557,-0.00745707890018821,0.03204157059577676,9.835409280878979,-0.42716458736702084
1743283788681659904,0.00106529693584889,-0.00745707890018821,-0.00532648479565978,0.019877050565484763,9.84757356808278,-0.4210823300178269
1743283788686670080,-0.00106529693584889,-0.0106529695913196,0.0,0.030558173771366506,9.84832763671875,-0.4149876880172963
1743283788691670016,0.00532648479565978,-0.003195890923962,-0.003195890923962,0.042722509309051686,9.84832763671875,-0.40890552291436566
1743283788696669952,0.0,-0.003195890923962,-0.00852237548679113,0.054887424901838566,9.84832763671875,-0.4028230677840113
1743283788701669888,0.00106529693584889,-0.012783563695848,-0.003195890923962,0.08157641895112674,9.83864481538009,-0.401582330465317
1743283788706670080,0.0,-0.00639178184792399,-0.003195890923962,0.11198917126022212,9.826479948123492,-0.401582330465317
1743283788711680000,0.00106529693584889,-0.00213059387169778,0.0,0.14246138012304024,9.814291298702221,-0.401582330465317
1743283788716679936,0.00106529693584889,-0.00532648479565978,-0.003195890923962,0.16491779460310932,9.81008243560791,-0.405560346609125
1743283788721679872,0.0,-0.00958767253905535,-0.00106529693584889,0.18316429939069914,9.81008243560791,-0.4116425117120556
1743283788726680064,0.00106529693584889,-0.00639178184792399,-0.00106529693584889,0.20141167426101214,9.81008243560791,-0.41772496684241
1743283788731680000,0.00213059387169778,-0.00426118774339557,-0.003195890923962,0.20414885880732564,9.813184345285977,-0.4238071789900112
1743283788736689920,0.0,-0.00532648479565978,-0.003195890923962,0.19195939187382752,9.819279111997046,-0.4299019077075717
1743283788741689856,-0.00213059387169778,-0.00426118774339557,-0.00639178184792399,0.17979486769649866,9.825361407262005,-0.4359841650567656
1743283788746690048,-0.00213059387169778,-0.003195890923962,-0.00639178184792399,0.1631529680416727,9.82920551300049,-0.439828246831894
1743283788751689984,0.00106529693584889,-0.00426118774339557,-0.00532648479565978,0.13882429815115205,9.82920551300049,-0.439828246831894
1743283788756689920,0.00213059387169778,-0.00532648479565978,-0.00213059387169778,0.11449446815048454,9.82920551300049,-0.439828246831894
1743283788761699840,0.00106529693584889,-0.00106529693584889,-0.00852237548679113,0.08874252837324297,9.830579913830121,-0.43707932521844406
1743283788766700032,0.00106529693584889,-0.00639178184792399,-0.00426118774339557,0.05832977724907185,9.83666219578813,-0.4249142304564115
1743283788771699968,-0.00106529693584889,-0.00426118774339557,-0.00745707890018821,0.02791847628469113,9.842744187726971,-0.41274971575802394
1743283788776699904,-0.00426118774339557,-0.00639178184792399,-0.00958767253905535,0.0,9.848826486997286,-0.401582330465317
1743283788781699840,0.00426118774339557,-0.003195890923962,-0.003195890923962,0.0,9.854908690015407,-0.401582330465317
1743283788786700032,0.0,-0.00745707890018821,-0.00639178184792399,0.0,9.860991183062758,-0.401582330465317
1743283788791709952,-0.00106529693584889,-0.00639178184792399,-0.00852237548679113,0.0,9.867085567308612,-0.401582330465317
1743283788796709888,0.003195890923962,-0.00426118774339557,-0.00639178184792399,0.017152199746079965,9.850298700368224,-0.4072997277818329
1743283788801709824,0.00106529693584889,-0.012783563695848,-0.00106529693584889,0.03539898008773486,9.832052117899465,-0.4133819851310265
1743283788806710016,0.0,-0.00532648479565978,-0.00532648479565978,0.05364663052525268,9.813804665344277,-0.4194645325120426
1743283788811709952,0.0,-0.00958767253905535,-0.003195890923962,0.08157605180896667,9.81492389357279,-0.4352295720013147
1743283788816720128,-0.00532648479565978,-0.00426118774339557,0.0,0.11204924865435067,9.821018567847874,-0.45351348084776777
1743283788821719808,-0.00106529693584889,-0.00852237548679113,-0.00426118774339557,0.1424600895720507,9.827100770865995,-0.4717599761565604
1743283788826720000,-0.00106529693584889,-0.00852237548679113,-0.003195890923962,0.152983739972115,9.82920551300049,-0.4938349719383381
1743283788831720192,0.00213059387169778,-0.00745707890018821,-0.00213059387169778,0.152983739972115,9.82920551300049,-0.5179352767792053
1743283788836719872,0.00213059387169778,-0.00213059387169778,-0.00852237548679113,0.152983739972115,9.82920551300049,-0.5420344324542874
1743283788841730048,0.0,-0.00426118774339557,0.00106529693584889,0.13832429641496324,9.82920551300049,-0.557497972565026
1743283788846880000,0.00213059387169778,-0.00532648479565978,-0.00852237548679113,0.10700131878765315,9.82920551300049,-0.5637625649174794
1743283788851890176,-0.003195890923962,-0.00639178184792399,-0.00639178184792399,0.07652812194226914,9.82920551300049,-0.5698572011996302
1743283788856889856,0.00213059387169778,-0.003195890923962,-0.003195890923962,0.04611711081322035,9.831455771712687,-0.5691883297006617
1743283788861890048,0.003195890923962,-0.003195890923962,-0.003195890923962,0.015704359689049263,9.837538053670695,-0.5570232349386292
1743283788866889984,-0.00106529693584889,0.00106529693584889,-0.00958767253905535,-0.014706941275331425,9.843620045609537,-0.5448587202402416
1743283788871890176,0.00106529693584889,-0.00532648479565978,0.0,-0.03961979038361229,9.849701500138439,-0.5299477013107797
1743283788876899840,-0.003195890923962,-0.003195890923962,-0.00532648479565978,-0.045710259438957235,9.85579200478779,-0.5055858061059297
1743283788881900032,-0.003195890923962,-0.00106529693584889,-0.00426118774339557,-0.05178884493501654,9.861870625808407,-0.48127144517526244
1743283788886899968,-0.00106529693584889,0.00213059387169778,0.0,-0.054876075947208204,9.866453603353458,-0.458951205015182
1743283788891900160,0.0,-0.00532648479565978,-0.00106529693584889,-0.02446332482303712,9.85428873609686,-0.458951205015182
1743283788896899840,0.00213059387169778,-0.00532648479565978,-0.003195890923962,0.0059479761413435694,9.842124448893058,-0.458951205015182
1743283788901910016,0.00106529693584889,-0.00852237548679113,-0.00213059387169778,0.03642163397671126,9.82993521941899,-0.458951205015182
1743283788906909952,-0.00213059387169778,-0.00532648479565978,-0.00106529693584889,0.0782677329154948,9.82920551300049,-0.44751641038215
1743283788911910144,0.00106529693584889,-0.0106529695913196,0.00213059387169778,0.12084558235647086,9.82920551300049,-0.4353513156201175
1743283788916909824,-0.00213059387169778,-0.00745707890018821,-0.00426118774339557,0.16342140157384205,9.82920551300049,-0.4231868009217299
1743283788921910016,0.0,-0.00958767253905535,0.00213059387169778,0.19147358072046305,9.819522017012268,-0.4158635708369449
1743283788926919936,-0.00106529693584889,-0.00745707890018821,0.00213059387169778,0.2158509799860439,9.807333248520562,-0.4097692245822178
1743283788931920128,0.00106529693584889,-0.00426118774339557,0.0,0.24018081472633618,9.795168262425857,-0.40368676945186344
1743283788936919808,0.00213059387169778,-0.00213059387169778,-0.003195890923962,0.22870963406676897,9.79493716945747,-0.3737378129498572
1743283788941920000,0.00106529693584889,-0.00639178184792399,0.00213059387169778,0.198296882942598,9.801019754756059,-0.3311599623239569
1743283788946919936,-0.00745707890018821,-0.00213059387169778,-0.00852237548679113,0.16788558197821746,9.807102050021017,-0.28858414192171794
1743283788951930112,-0.00426118774339557,-0.00213059387169778,-0.00106529693584889,0.1311835280233321,9.813196769497976,-0.270835878053608
1743283788956930048,0.0,-0.00106529693584889,-0.00213059387169778,0.08860835156794693,9.819278972516097,-0.27691804315653895
1743283788961929984,0.00106529693584889,-0.003195890923962,-0.00639178184792399,0.046031144919606914,9.82536146556345,-0.28300049828689366
1743283788966929920,-0.003195890923962,-0.003195890923962,-0.00745707890018821,0.0191229674965143,9.833681780434171,-0.28908269733500647
1743283788971930112,0.00213059387169778,-0.00532648479565978,-0.00745707890018821,0.0191229674965143,9.84584664769077,-0.29516524471602257
1743283788976940032,0.00213059387169778,-0.00106529693584889,-0.003195890923962,0.0191229674965143,9.85803529711204,-0.3012596834017603
1743283788981939968,-0.003195890923962,-0.00213059387169778,-0.003195890923962,0.021870678411500095,9.863329192367294,-0.31283675850296855
1743283788986939904,-0.00106529693584889,-0.00106529693584889,-0.0106529695913196,0.03402727030984758,9.845094501967683,-0.34322824387329054
1743283788991940096,0.003195890923962,0.00426118774339557,-0.00213059387169778,0.04618444189404212,9.826858942048714,-0.3736211784584984
1743283788996939776,0.00213059387169778,-0.00213059387169778,-0.00213059387169778,0.058341667833245195,9.81008243560791,-0.404014248054806
1743283789001949952,-0.00213059387169778,-0.00106529693584889,-0.00532648479565978,0.07053113120485173,9.81008243560791,-0.434487901140985
1743283789006949888,0.003195890923962,0.0,-0.003195890923962,0.08269565182757756,9.81008243560791,-0.46489919736589513
1743283789011950080,-0.00106529693584889,0.0,-0.00426118774339557,0.09486075251423084,9.81008243560791,-0.4953119437503696
1743283789016950016,0.00213059387169778,-0.003195890923962,0.00106529693584889,0.1241404962171749,9.82149248112321,-0.5314279456790206
1743283789021949952,0.0,0.0,-0.00213059387169778,0.15455278608782175,9.833657163881936,-0.5679226954196467
1743283789026959872,-0.00106529693584889,-0.00213059387169778,-0.003195890923962,0.18502453160812984,9.845845628444643,-0.6044887919435725
1743283789031960064,0.0,-0.00958767253905535,-0.00426118774339557,0.20091267743775318,9.83864481538009,-0.6070934586758268
1743283789036960000,0.0,-0.00639178184792399,-0.003195890923962,0.21307719687561125,9.826480528176289,-0.6010112013266332
1743283789041959936,0.00106529693584889,-0.0106529695913196,-0.003195890923962,0.22524229637734028,9.814315660919691,-0.5949286539456171
1743283789046960128,0.00106529693584889,-0.00745707890018821,-0.003195890923962,0.22154392943327464,9.814048295322268,-0.5888461667131583
1743283789051970048,-0.00106529693584889,-0.003195890923962,-0.00639178184792399,0.20935523217492963,9.82014267956812,-0.5827518204584309
1743283789056969984,0.00106529693584889,-0.00426118774339557,-0.00426118774339557,0.19719089722966937,9.82622488258624,-0.5766696553554999
1743283789061969920,-0.00213059387169778,-0.00426118774339557,-0.00852237548679113,0.1695164285774094,9.832307267985275,-0.5643833628293327
1743283789066970112,0.00213059387169778,-0.00639178184792399,-0.00852237548679113,0.126938576766585,9.838389549943283,-0.5461357017274977
1743283789071970048,0.00106529693584889,-0.0106529695913196,-0.00852237548679113,0.08436275517947844,9.844471541882125,-0.5278889107220343
1743283789076980224,0.0,-0.0117182666435838,-0.00532648479565978,0.04617656736462656,9.850566116278854,-0.5118431746670409
1743283789081979904,0.00106529693584889,-0.00745707890018821,-0.00745707890018821,0.01576526640024587,9.856648411543814,-0.499678650489712
1743283789086980096,-0.00213059387169778,-0.00639178184792399,-0.00852237548679113,-0.014647484723925214,9.862730996842403,-0.48751354624828613
1743283789091980032,0.00213059387169778,-0.0117182666435838,-0.00426118774339557,-0.0409710339935177,9.868813271441887,-0.47534906552515366
1743283789096979968,0.00106529693584889,-0.00213059387169778,-0.00745707890018821,-0.05313595017875768,9.87489576448924,-0.46318415526444456
1743283789101989888,0.0,-0.00532648479565978,-0.00745707890018821,-0.06532464862432547,9.880990148735092,-0.4509954627549901
1743283789106990080,-0.00213059387169778,-0.00852237548679113,-0.00426118774339557,-0.07499530505321515,9.88607493365947,-0.43932939209723115
1743283789111990016,-0.00106529693584889,-0.0106529695913196,-0.00532648479565978,-0.056748524119126426,9.879992638394512,-0.4332471347480372
1743283789116990208,0.00106529693584889,-0.012783563695848,-0.00213059387169778,-0.03850087308914651,9.873910053095923,-0.42716458736702084
1743283789121989888,0.0,-0.00958767253905535,-0.003195890923962,-0.02025409215505778,9.867827757830964,-0.4210823300178269
1743283789127000064,0.00213059387169778,-0.00852237548679113,-0.00213059387169778,0.009465049582903558,9.850298090430183,-0.4092700784753484
1743283789132000000,0.00106529693584889,0.0,-0.003195890923962,0.03987588990817859,9.832051784697336,-0.39710573879068956
1743283789137000192,0.00106529693584889,-0.00745707890018821,0.0,0.07028818037127849,9.813804608891258,-0.38494081905073124
1743283789141999872,0.003195890923962,-0.00532648479565978,0.00426118774339557,0.08617487618395765,9.814923967001642,-0.382459342479706
1743283789147000064,0.00213059387169778,-0.00426118774339557,-0.00426118774339557,0.09833997568568689,9.821006552300231,-0.382459342479706
1743283789152009984,-0.00106529693584889,-0.00745707890018821,-0.003195890923962,0.11052885780612542,9.82710102897767,-0.382459342479706
1743283789157010176,0.00745707890018821,-0.00426118774339557,0.0,0.12269383819108975,9.82920551300049,-0.39041538096689216
1743283789162009856,-0.003195890923962,-0.00639178184792399,-0.00106529693584889,0.13485817550604945,9.82920551300049,-0.402579720651551
1743283789167010048,-0.00106529693584889,-0.00106529693584889,-0.00426118774339557,0.14702309287619558,9.82920551300049,-0.41474464039150927
1743283789172009984,0.00213059387169778,-0.00745707890018821,-0.00106529693584889,0.15608365566524987,9.82300564296552,-0.4176053729554702
1743283789177020160,0.0,0.00106529693584889,-0.012783563695848,0.16217450450821722,9.810823869340938,-0.4115145241125028
1743283789182019840,-0.00106529693584889,-0.00106529693584889,0.00213059387169778,0.1682528899220303,9.798667022730054,-0.4054361386986897
1743283789187020032,0.00106529693584889,-0.0138488598167896,-0.00213059387169778,0.16988044765089222,9.79541188698049,-0.4038085809698278
1743283789192019968,0.0,-0.00639178184792399,-0.003195890923962,0.16379828254796155,9.807576293016734,-0.40989074607275844
1743283789197020160,0.0,-0.00639178184792399,-0.00639178184792399,0.15771582741760717,9.819741279111438,-0.4159732012031128
1743283789202019840,0.0,-0.003195890923962,-0.003195890923962,0.15028354212678824,9.827855406450569,-0.420705288648605
1743283789207030016,0.0,-0.00213059387169778,-0.00745707890018821,0.13809407756788455,9.8217606397395,-0.420705288648605
1743283789212029952,0.00106529693584889,-0.00532648479565978,-0.00213059387169778,0.12592955576029108,9.815678344474541,-0.420705288648605
1743283789217030144,-0.00426118774339557,0.0,-0.003195890923962,0.11425113504717382,9.810569104658715,-0.420705288648605
1743283789222029824,0.0,-0.00213059387169778,-0.00639178184792399,0.10816896757454354,9.816651307676835,-0.420705288648605
1743283789227040000,-0.00106529693584889,-0.00213059387169778,-0.00426118774339557,0.10207432891783416,9.822745981951918,-0.420705288648605
1743283789232039936,-0.00213059387169778,-0.00426118774339557,-0.00426118774339557,0.09599216144520388,9.828828184970039,-0.420705288648605
1743283789237040128,-0.00106529693584889,0.0,-0.00532648479565978,0.08420439810289632,9.834910480022996,-0.42641050462857705
1743283789242039808,0.00213059387169778,-0.00958767253905535,-0.00532648479565978,0.07203987748017049,9.840992471961838,-0.432492761977771
1743283789247040000,0.0,-0.00426118774339557,-0.00532648479565978,0.0598747767935172,9.847074753919847,-0.4385753093587874
1743283789252039936,-0.00106529693584889,-0.00745707890018821,-0.00958767253905535,0.052539578869237775,9.853156986700002,-0.4543162139864467
1743283789257050112,0.0,-0.003195890923962,-0.00426118774339557,0.04644484777708308,9.85925175341107,-0.47260040963750505
1743283789262049792,0.00532648479565978,0.0,-0.00639178184792399,0.040362588058153986,9.865334048676031,-0.49084719116402753
1743283789267049984,0.003195890923962,-0.00958767253905535,-0.00426118774339557,0.04221177153018682,9.85555333274702,-0.4892654750194723
1743283789272049920,0.00106529693584889,-0.00106529693584889,-0.00532648479565978,0.048293939002817005,9.837307027014173,-0.47710113533481313
1743283789277050112,0.00106529693584889,-0.00532648479565978,-0.00213059387169778,0.05437639650298391,9.819059851208097,-0.46493621559485454
1743283789282060032,-0.00532648479565978,-0.00532648479565978,-0.003195890923962,0.0573689006268978,9.816282151048076,-0.462051120708317
1743283789287059968,-0.003195890923962,-0.00639178184792399,-0.00639178184792399,0.0573689006268978,9.828439274209478,-0.4681297959693201
1743283789292059904,-0.00106529693584889,-0.00426118774339557,0.0,0.0573689006268978,9.840595817687339,-0.4742081813831335
1743283789297060096,0.00213059387169778,-0.003195890923962,-0.003195890923962,0.0573689006268978,9.84832763671875,-0.478074163198471
1743283789302059776,-0.00106529693584889,-0.00532648479565978,-0.00213059387169778,0.0573689006268978,9.84832763671875,-0.478074163198471
1743283789307069952,-0.00426118774339557,-0.00426118774339557,-0.003195890923962,0.0573689006268978,9.84832763671875,-0.478074163198471
1743283789312069888,-0.00426118774339557,0.0,-0.00426118774339557,0.05871899954956118,9.84832763671875,-0.4807743615698155
1743283789317070080,0.00106529693584889,-0.00426118774339557,-0.00213059387169778,0.0648015504853499,9.84832763671875,-0.4929394658112414
1743283789322069760,0.003195890923962,-0.0106529695913196,-0.003195890923962,0.07088381138914662,9.84832763671875,-0.5051039899885703
1743283789327069952,-0.00213059387169778,-0.0117182666435838,-0.00426118774339557,0.07743784155647972,9.84832763671875,-0.5153741374283846
1743283789332079872,0.00106529693584889,-0.00852237548679113,-0.00426118774339557,0.08958802530298723,9.84832763671875,-0.5032239489479918
1743283789337080064,0.00213059387169778,-0.00745707890018821,-0.00106529693584889,0.10171450193801106,9.84832763671875,-0.49109746758831946
1743283789342080000,0.00213059387169778,-0.00532648479565978,-0.00639178184792399,0.11384097857303488,9.84832763671875,-0.47897098622864703
1743283789347130112,0.0,-0.00852237548679113,-0.00106529693584889,0.12043104623601544,9.842634646825834,-0.4723809248707549
1743283789352130048,0.00106529693584889,-0.00532648479565978,-0.003195890923962,0.12651321844804417,9.836552747129229,-0.4662987597678239
1743283789357139968,0.00639178184792399,-0.00213059387169778,-0.003195890923962,0.1326078618538699,9.830458376797607,-0.46020412348567274
1743283789362139904,0.0,-0.00426118774339557,-0.003195890923962,0.12903145626802057,9.82920551300049,-0.45412188513909485
1743283789367140096,-0.00106529693584889,-0.00106529693584889,-0.00106529693584889,0.12294890177745957,9.82920551300049,-0.44803933775807875
1743283789372140032,-0.00106529693584889,-0.00426118774339557,-0.00532648479565978,0.11686663731906005,9.82920551300049,-0.4419570804088851
1743283789377139968,0.0,0.00213059387169778,-0.00532648479565978,0.11869145971521299,9.82920551300049,-0.439828246831894
1743283789382149888,0.003195890923962,-0.00639178184792399,-0.00745707890018821,0.12478581309327601,9.82920551300049,-0.439828246831894
1743283789387150080,-0.00106529693584889,-0.00426118774339557,-0.00639178184792399,0.13086827533306744,9.82920551300049,-0.439828246831894
1743283789392150016,-0.00213059387169778,-0.00426118774339557,-0.003195890923962,0.13077303606856902,9.82920551300049,-0.439828246831894
1743283789397149952,0.0,-0.00426118774339557,-0.00639178184792399,0.12469435370254729,9.82920551300049,-0.439828246831894
1743283789402149888,0.00106529693584889,-0.00213059387169778,-0.00213059387169778,0.11861596118405399,9.82920551300049,-0.439828246831894
1743283789407160064,-0.00213059387169778,-0.00639178184792399,-0.00639178184792399,0.10145337909907576,9.833633568893115,-0.439828246831894
1743283789412160000,-0.00106529693584889,-0.0106529695913196,-0.00532648479565978,0.06496037189359527,9.845797671607839,-0.439828246831894
1743283789417159936,-0.00106529693584889,-0.00639178184792399,-0.00106529693584889,0.028465624522781452,9.857962354366565,-0.439828246831894
1743283789422159872,0.0,-0.00532648479565978,-0.00426118774339557,-0.005351669794729309,9.86745071411133,-0.44116616362898664
1743283789427160064,0.003195890923962,-0.00532648479565978,-0.00106529693584889,-0.029681871168035855,9.86745071411133,-0.44724871101000274
1743283789432160000,0.00106529693584889,-0.00958767253905535,-0.00213059387169778,-0.054010912413487475,9.86745071411133,-0.4533309683591964
1743283789437169920,0.003195890923962,-0.0138488598167896,-0.00426118774339557,-0.07174701911552722,9.86555278648191,-0.45752775041954113
1743283789442169856,0.003195890923962,-0.00639178184792399,-0.00106529693584889,-0.010925339649826712,9.841224277730943,-0.4392812551107489
1743283789447170048,0.00426118774339557,-0.00745707890018821,0.00213059387169778,0.049899240091467026,9.816894608877512,-0.4210338897196854
1743283789452169984,0.003195890923962,-0.00532648479565978,0.003195890923962,0.11072091955716755,9.792566100126546,-0.4027873944108931
1743283789457169920,-0.00213059387169778,-0.00745707890018821,0.0,0.1488229365884956,9.808001741068585,-0.41862489038596806
1743283789462179840,-0.003195890923962,-0.00213059387169778,-0.00106529693584889,0.1853895853242919,9.826284867167296,-0.4369082064431815
1743283789467180032,0.0,-0.00745707890018821,-0.00426118774339557,0.2218848861993274,9.844532319722482,-0.45515584858623015
1743283789472179968,-0.00213059387169778,-0.00426118774339557,-0.00532648479565978,0.2198413216748513,9.83869353981503,-0.4493169279360957
1743283789477179904,0.0,-0.00852237548679113,-0.00106529693584889,0.20767622217312226,9.826528672558432,-0.43715183317406314
1743283789482180096,-0.00426118774339557,-0.00213059387169778,-0.003195890923962,0.19551112267139323,9.814363805301832,-0.4249867384120306
1743283789487190016,-0.00532648479565978,-0.00532648479565978,-0.00213059387169778,0.1675077374157574,9.817989595409882,-0.420705288648605
1743283789492189952,-0.00426118774339557,-0.00532648479565978,-0.00426118774339557,0.13101473021027701,9.830153698124606,-0.420705288648605
1743283789497189888,-0.00106529693584889,-0.00213059387169778,-0.00532648479565978,0.09451998283946328,9.842318380883333,-0.420705288648605
1743283789502190080,0.00426118774339557,0.0,-0.00426118774339557,0.06418059318968455,9.84832763671875,-0.4268609240488858
1743283789507190016,0.00106529693584889,-0.00213059387169778,-0.00213059387169778,0.039851551944232934,9.84832763671875,-0.4390254387472734
1743283789512200192,0.00745707890018821,-0.003195890923962,-0.00745707890018821,0.015472625201019899,9.84832763671875,-0.4512148961823941
1743283789517199872,0.003195890923962,-0.00426118774339557,-0.00213059387169778,0.004428140862012289,9.84832763671875,-0.46116527436789645
1743283789522200064,0.00532648479565978,-0.00213059387169778,-0.00532648479565978,0.016593057047252235,9.84832763671875,-0.46724772949825116
1743283789527200000,-0.003195890923962,-0.00532648479565978,-0.003195890923962,0.028757393177362235,9.84832763671875,-0.47332989460118213
1743283789532200192,-0.00532648479565978,-0.00639178184792399,-0.00426118774339557,0.044936973047989756,9.84698948828492,-0.478074163198471
1743283789537210112,0.0,-0.00745707890018821,0.003195890923962,0.07540918428528903,9.84089531554109,-0.478074163198471
1743283789542210048,-0.00106529693584889,-0.00958767253905535,-0.00426118774339557,0.10582193896423257,9.834813033583082,-0.478074163198471
1743283789547209984,0.00106529693584889,-0.00639178184792399,-0.00532648479565978,0.13480975151925323,9.82920551300049,-0.4775996783332574
1743283789552210176,0.0,-0.00532648479565978,-0.003195890923962,0.1469746617799623,9.82920551300049,-0.4715172232029027
1743283789557209856,0.0,-0.00958767253905535,-0.003195890923962,0.15913899198582393,9.82920551300049,-0.4654350580999717
1743283789562220032,-0.00106529693584889,-0.00745707890018821,-0.003195890923962,0.1713282645501259,9.82920551300049,-0.4593404218178206
1743283789567219968,0.00106529693584889,-0.0106529695913196,-0.003195890923962,0.15502758757085416,9.817819372734801,-0.44187210108489866
1743283789572220160,0.0,-0.00426118774339557,-0.00426118774339557,0.13677993831826063,9.805654202137623,-0.42362445894185
1743283789577219840,0.00213059387169778,-0.00745707890018821,-0.003195890923962,0.11853315916147353,9.793489611607706,-0.40537768689426884
1743283789582220032,-0.00213059387169778,-0.00639178184792399,-0.00532648479565978,0.09546837077542569,9.800594129292627,-0.39194760443389215
1743283789587229952,-0.00106529693584889,0.00106529693584889,-0.00745707890018821,0.07109097507151266,9.81278289778433,-0.37975889292887527
1743283789592230144,-0.00426118774339557,-0.00213059387169778,-0.00532648479565978,0.04676114388593877,9.824947883879036,-0.36759396370966746
1743283789597230080,-0.00106529693584889,0.0,-0.00639178184792399,0.04219936030554219,9.833158764257863,-0.34752265940528465
1743283789602230016,-0.003195890923962,-0.003195890923962,-0.003195890923962,0.048281910056406765,9.839241046215871,-0.3231924698812196
1743283789607229952,-0.003195890923962,-0.00213059387169778,-0.00426118774339557,0.054364169775335855,9.845323038154714,-0.29886344048444446
1743283789612240128,0.00106529693584889,0.0,-0.00426118774339557,0.06354880798134882,9.842147847947462,-0.29302442610566704
1743283789617240064,0.003195890923962,-0.003195890923962,-0.00639178184792399,0.07571314411145885,9.829983745232736,-0.30518875631152864
1743283789622240000,0.00106529693584889,-0.00426118774339557,-0.003195890923962,0.08787806029669881,9.817819062474012,-0.31735366657223774
1743283789627239936,0.003195890923962,-0.00106529693584889,-0.00106529693584889,0.0956148356199265,9.81008243560791,-0.32730425102849525
1743283789632240128,0.0,0.003195890923962,-0.00852237548679113,0.0956148356199265,9.81008243560791,-0.3333867984095114
1743283789637250048,0.00106529693584889,0.0,-0.00745707890018821,0.0956148356199265,9.81008243560791,-0.33948123709524913
1743283789642249984,0.00213059387169778,-0.00106529693584889,-0.003195890923962,0.0956148356199265,9.811432811710736,-0.3509652389440992
1743283789647249920,0.003195890923962,-0.00106529693584889,-0.00426118774339557,0.0956148356199265,9.817515014728857,-0.38137608341634816
1743283789652250112,0.003195890923962,-0.00213059387169778,-0.00532648479565978,0.0956148356199265,9.82359750777621,-0.4117883780266197
1743283789657250048,0.00426118774339557,-0.00639178184792399,-0.00639178184792399,0.0956148356199265,9.829679694337575,-0.4412508536601742
1743283789662259968,0.00106529693584889,-0.00106529693584889,-0.00426118774339557,0.0956148356199265,9.835774157100573,-0.4595350493112325
1743283789667259904,0.00106529693584889,0.00106529693584889,-0.00426118774339557,0.0956148356199265,9.841856149039415,-0.477781830837755
1743283789672260096,0.00426118774339557,-0.003195890923962,-0.00426118774339557,0.0956148356199265,9.847938430997424,-0.49602948246019696
1743283789677260032,0.00213059387169778,0.0,-0.00745707890018821,0.08992179875841015,9.842634850501234,-0.5142762728590736
1743283789682259968,0.00106529693584889,-0.00532648479565978,-0.00426118774339557,0.08383924900754558,9.836552568543224,-0.5325239339609088
1743283789687269888,0.00106529693584889,-0.00639178184792399,-0.00745707890018821,0.07774480794732637,9.830458395799393,-0.5508072690139731
1743283789692270080,0.003195890923962,-0.00639178184792399,-0.00639178184792399,0.06683279196218661,9.834034838914747,-0.554566085338593
1743283789697270016,0.00426118774339557,-0.003195890923962,-0.00426118774339557,0.05466845583207658,9.84011673861135,-0.554566085338593
1743283789702269952,0.00532648479565978,0.0,-0.00532648479565978,0.042503539646836605,9.846198928322723,-0.554566085338593
1743283789707269888,0.0,0.00106529693584889,-0.00426118774339557,0.04219936030554219,9.840420937044199,-0.5506126615663903
1743283789712280064,0.003195890923962,-0.00426118774339557,-0.00426118774339557,0.04829409139769688,9.828231707570131,-0.5445179328488298
1743283789717280000,-0.00106529693584889,0.0,-0.00745707890018821,0.054376351116625976,9.81606742036633,-0.5384356754996358
1743283789722279936,0.0,-0.00213059387169778,-0.00213059387169778,0.0573689006268978,9.816262224379198,-0.535443127155304
1743283789727279872,0.00213059387169778,-0.00213059387169778,-0.00639178184792399,0.0573689006268978,9.828426327093924,-0.535443127155304
1743283789732280064,-0.00639178184792399,-0.00106529693584889,0.0,0.0573689006268978,9.840591009852648,-0.535443127155304
1743283789737289984,-0.00213059387169778,-0.00213059387169778,-0.00106529693584889,0.0595948961653385,9.84832763671875,-0.5309911317420251
1743283789742289920,0.0,-0.00639178184792399,-0.00532648479565978,0.06567744710112722,9.84832763671875,-0.5188260180212063
1743283789747289856,-0.00213059387169778,-0.00532648479565978,-0.00639178184792399,0.07175970800492394,9.84832763671875,-0.5066614843649364
1743283789752290048,0.00106529693584889,-0.00532648479565978,-0.00426118774339557,0.07919260640802729,9.846977327959635,-0.49449641370986647
1743283789757289984,0.00213059387169778,-0.00426118774339557,0.0,0.09135694135328774,9.84089542826303,-0.48233207402520734
1743283789762299904,-0.00106529693584889,-0.00532648479565978,-0.00106529693584889,0.10354621866670644,9.834801057931408,-0.47014279196267206
1743283789767299840,0.0,-0.00213059387169778,-0.003195890923962,0.11571056855489438,9.82920551300049,-0.45797843828258955
1743283789772300032,-0.00213059387169778,0.00106529693584889,-0.00532648479565978,0.12787567042647183,9.82920551300049,-0.445813343520557
1743283789777299968,-0.00106529693584889,-0.00213059387169778,-0.00213059387169778,0.14004019223406527,9.82920551300049,-0.4336488288221695
1743283789782299904,-0.00106529693584889,0.00213059387169778,0.0,0.1522052941056427,9.82920551300049,-0.42148373406013695
1743283789787300096,0.00426118774339557,-0.00213059387169778,-0.00745707890018821,0.14160450513208586,9.82920551300049,-0.420705288648605
1743283789792310016,-0.003195890923962,-0.00213059387169778,-0.00532648479565978,0.12942356464846222,9.82920551300049,-0.420705288648605
1743283789797310208,0.00106529693584889,-0.00106529693584889,-0.00532648479565978,0.11726639128803987,9.82920551300049,-0.420705288648605
1743283789802309888,0.00426118774339557,-0.00213059387169778,-0.00852237548679113,0.10510352042105611,9.83402244133544,-0.420705288648605
1743283789807310080,-0.00106529693584889,-0.003195890923962,-0.00106529693584889,0.09293842091932686,9.840104723293448,-0.420705288648605
1743283789812310016,0.003195890923962,-0.00639178184792399,-0.00426118774339557,0.08077390148146857,9.84618671523229,-0.420705288648605
1743283789817320192,0.00426118774339557,-0.00532648479565978,-0.00532648479565978,0.06858455845462533,9.844374155403404,-0.4246589424888203
1743283789822319872,0.00213059387169778,-0.00213059387169778,-0.00426118774339557,0.056420222324515296,9.838292255706799,-0.43074110759175127
1743283789827320064,0.00426118774339557,-0.00639178184792399,-0.003195890923962,0.044255306139275315,9.832210065995428,-0.43682356272210593
1743283789832320000,0.003195890923962,-0.0106529695913196,-0.00106529693584889,0.04131369304124138,9.82920551300049,-0.4367604899789235
1743283789837320192,0.0,-0.00532648479565978,-0.00426118774339557,0.047376931358753246,9.82920551300049,-0.43069725402373576
1743283789842329856,0.00213059387169778,-0.00639178184792399,0.0,0.05345202323200696,9.82920551300049,-0.4246221645174245
1743283789847379968,-0.00106529693584889,-0.00532648479565978,-0.00213059387169778,0.0573689006268978,9.831419229297719,-0.4229191015495824
1743283789852380160,0.003195890923962,-0.00852237548679113,-0.00639178184792399,0.0573689006268978,9.837501511255727,-0.42900164893059883
1743283789857379840,0.00213059387169778,-0.00532648479565978,-0.00532648479565978,0.0573689006268978,9.84358350319457,-0.43508390627979276
1743283789862380032,0.00213059387169778,-0.00745707890018821,-0.00745707890018821,0.058707087942028786,9.84832763671875,-0.43849006029882814
1743283789867389952,0.003195890923962,-0.00745707890018821,-0.00426118774339557,0.06480143775842401,9.84832763671875,-0.43239571404410077
1743283789872390144,0.0,-0.00106529693584889,-0.003195890923962,0.07088389644349707,9.84832763671875,-0.42631325891374605
1743283789877389824,-0.00106529693584889,-0.00426118774339557,-0.00532648479565978,0.07696607220056538,9.847853455381665,-0.42117949067835714
1743283789882390016,0.00426118774339557,-0.0106529695913196,0.0,0.08304862195142995,9.841771173423657,-0.4272620380593736
1743283789887389952,0.00532648479565978,-0.0117182666435838,-0.00106529693584889,0.08913088167035906,9.835689181484813,-0.4333442954085675
1743283789892400128,0.0,-0.00639178184792399,-0.00532648479565978,0.09522561276251373,9.829594718721816,-0.439439024126128
1743283789897399808,-0.00213059387169778,-0.00426118774339557,-0.00426118774339557,0.10130778613827372,9.834898212878638,-0.42844235023130944
1743283789902400000,-0.003195890923962,-0.00745707890018821,-0.00639178184792399,0.10739024363844073,9.840980402590011,-0.4162774399706004
1743283789907399936,-0.003195890923962,-0.003195890923962,-0.00532648479565978,0.11347241111107101,9.847062302286616,-0.4041131097647388
1743283789912400128,-0.00106529693584889,-0.00852237548679113,0.00426118774339557,0.11955187885332179,9.843513774816898,-0.4063964024379469
1743283789917409792,-0.003195890923962,-0.00532648479565978,-0.00426118774339557,0.12564244496800872,9.83742348159373,-0.41248696143372465
1743283789922409984,-0.003195890923962,-0.00639178184792399,-0.00106529693584889,0.13172112733403044,9.831345071586767,-0.41856563669472735
1743283789927409920,-0.00213059387169778,-0.00213059387169778,-0.00213059387169778,0.133860781788826,9.82920551300049,-0.4246465310842636
1743283789932410112,0.00106529693584889,0.0,-0.00532648479565978,0.133860781788826,9.82920551300049,-0.43072907846528
1743283789937410048,0.0,-0.00106529693584889,-0.00745707890018821,0.133860781788826,9.82920551300049,-0.4368116258462964
1743283789942409984,-0.00106529693584889,-0.00213059387169778,-0.00106529693584889,0.133860781788826,9.82920551300049,-0.4367626569631238
1743283789947419904,-0.00106529693584889,0.00213059387169778,-0.00532648479565978,0.133860781788826,9.82920551300049,-0.43066831070839634
1743283789952420096,-0.00106529693584889,0.0,-0.00745707890018821,0.133860781788826,9.82920551300049,-0.4245858555780417
1743283789957420032,0.00213059387169778,0.00213059387169778,-0.00532648479565978,0.1294569351647127,9.82920551300049,-0.42290721024486083
1743283789962419968,0.00106529693584889,-0.00106529693584889,-0.00426118774339557,0.117292410987384,9.82920551300049,-0.42898946759405476
1743283789967430144,0.00106529693584889,-0.00532648479565978,-0.00745707890018821,0.10510294405388604,9.82920551300049,-0.43508419631161527
1743283789972430080,0.003195890923962,-0.003195890923962,-0.00532648479565978,0.0942766485654839,9.827867318125396,-0.43849006029882814
1743283789977430016,-0.00106529693584889,-0.00426118774339557,-0.00213059387169778,0.08819419106531699,9.821784825078042,-0.4324076051684735
1743283789982429952,0.0,0.0,-0.00745707890018821,0.08211202359268682,9.815702622059922,-0.4263254400655425
1743283789987430144,0.003195890923962,-0.00532648479565978,-0.00852237548679113,0.07602926431073252,9.811007629115023,-0.4220931048635095
1743283789992430080,0.00106529693584889,-0.00532648479565978,-0.00639178184792399,0.06994312653329468,9.823179669916568,-0.4403515075252171
1743283789997440000,0.00106529693584889,-0.003195890923962,-0.003195890923962,0.06384450943086377,9.835376668886749,-0.45864734814002445
1743283790002439936,0.00106529693584889,-0.003195890923962,-0.00532648479565978,0.057758371653425934,9.847548709688295,-0.4769057508017321
1743283790007440128,0.00213059387169778,0.00106529693584889,-0.00745707890018821,0.06306214228186559,9.84832763671875,-0.4723809248707549
1743283790012440064,0.0,-0.003195890923962,-0.00852237548679113,0.06914431093934544,9.84832763671875,-0.4662987597678239
1743283790017440000,0.00213059387169778,-0.00213059387169778,-0.00639178184792399,0.0752267696244185,9.84832763671875,-0.4602163046374692
1743283790022449920,0.003195890923962,0.0,-0.00745707890018821,0.08615051350137742,9.843498527578811,-0.473439172169735
1743283790027450112,0.00213059387169778,-0.00426118774339557,0.0,0.09831561300310666,9.837416245620803,-0.4916868237921773
1743283790032450048,0.00106529693584889,-0.003195890923962,-0.00745707890018821,0.11048013244096495,9.831334253681959,-0.5099336053187001
1743283790037449984,0.0,-0.00213059387169778,-0.00852237548679113,0.114737801253796,9.82920551300049,-0.508412795525338
1743283790042449920,-0.003195890923962,-0.00106529693584889,-0.00639178184792399,0.114737801253796,9.82920551300049,-0.4962484558406789
1743283790047460096,0.00532648479565978,-0.00213059387169778,-0.00106529693584889,0.114737801253796,9.82920551300049,-0.48405917377814356
1743283790052460032,0.0,-0.00106529693584889,-0.00852237548679113,0.10546867002592651,9.82920551300049,-0.4842535860233761
1743283790057459968,0.00106529693584889,-0.00745707890018821,-0.00639178184792399,0.08722101958840855,9.82920551300049,-0.49641869026480195
1743283790062459904,0.00639178184792399,-0.003195890923962,-0.00639178184792399,0.06897423924675353,9.82920551300049,-0.5085832144421308
1743283790067460096,0.0,0.00106529693584889,-0.00745707890018821,0.05515483041154999,9.82920551300049,-0.5118919672114086
1743283790072470016,0.00639178184792399,-0.003195890923962,-0.00426118774339557,0.04906048178237742,9.82920551300049,-0.49970326520417274
1743283790077469952,0.0,-0.00745707890018821,-0.00745707890018821,0.04297802428221052,9.82920551300049,-0.48753834546421415
1743283790082469888,0.00106529693584889,-0.00958767253905535,-0.00745707890018821,0.0382459349930286,9.830555552220142,-0.4807743615698155
1743283790087470080,0.00106529693584889,-0.00639178184792399,-0.00426118774339557,0.0382459349930286,9.83663783417815,-0.4929394658112414
1743283790092470016,0.0,-0.003195890923962,-0.00213059387169778,0.0382459349930286,9.842719826116992,-0.5051039899885703
1743283790097479936,-0.00106529693584889,-0.00426118774339557,-0.00106529693584889,0.03873260858076228,9.84832763671875,-0.5153467618126737
1743283790102479872,-0.00213059387169778,-0.00426118774339557,-0.00745707890018821,0.04481486829969138,9.84832763671875,-0.5031822376353449
1743283790107480064,0.00532648479565978,-0.00745707890018821,-0.00426118774339557,0.05089741805055595,9.84832763671875,-0.491017133393919
1743283790112480000,-0.00213059387169778,-0.00532648479565978,-0.00852237548679113,0.056979677769485045,9.84832763671875,-0.4788526092165901
1743283790117479936,0.00106529693584889,-0.00639178184792399,-0.00532648479565978,0.06306214228186559,9.84832763671875,-0.4723809248707549
1743283790122489856,0.0,-0.00852237548679113,-0.003195890923962,0.0691564920982608,9.84832763671875,-0.46628657861602746
1743283790127490048,-0.00213059387169778,-0.00532648479565978,-0.00639178184792399,0.07523895078333387,9.84832763671875,-0.46020412348567274
1743283790132489984,0.00426118774339557,-0.003195890923962,-0.00426118774339557,0.0764918699860573,9.843498527578811,-0.458951205015182
1743283790137489920,0.00213059387169778,-0.00745707890018821,-0.00106529693584889,0.0764918699860573,9.837416245620803,-0.458951205015182
1743283790142489856,0.00106529693584889,-0.00426118774339557,-0.00532648479565978,0.0764918699860573,9.831334253681959,-0.458951205015182
1743283790147500032,-0.00106529693584889,-0.00639178184792399,-0.00213059387169778,0.08045770652321552,9.833171174936085,-0.458951205015182
1743283790152499968,-0.00106529693584889,-0.00639178184792399,-0.00213059387169778,0.0865398739958457,9.83925307463269,-0.458951205015182
1743283790157499904,0.0,-0.00532648479565978,-0.00213059387169778,0.09262233149601261,9.845335264344063,-0.458951205015182
1743283790162499840,-0.003195890923962,-0.003195890923962,-0.00213059387169778,0.09870454582858382,9.845238062538956,-0.45277178700545795
1743283790167500032,0.00426118774339557,-0.003195890923962,-0.00213059387169778,0.10478709557944849,9.839155780580946,-0.4406066922434254
1743283790172509952,0.0,0.0,-0.00426118774339557,0.1108815366396678,9.833061607837115,-0.4284178148719497
1743283790177510144,-0.003195890923962,0.0,-0.00426118774339557,0.114737801253796,9.82920551300049,-0.4184790381440942
1743283790182509824,0.0,-0.00745707890018821,0.0,0.114737801253796,9.82920551300049,-0.41239687304116357
1743283790187510016,0.003195890923962,-0.00213059387169778,-0.00426118774339557,0.114737801253796,9.82920551300049,-0.4063144179108092
1743283790192509952,0.0,-0.00639178184792399,-0.00213059387169778,0.114737801253796,9.82920551300049,-0.401582330465317
1743283790197520128,0.003195890923962,-0.003195890923962,-0.00426118774339557,0.114737801253796,9.82920551300049,-0.401582330465317
1743283790202519808,0.00426118774339557,-0.00532648479565978,-0.00426118774339557,0.114737801253796,9.82920551300049,-0.401582330465317
1743283790207520000,0.00213059387169778,-0.00532648479565978,0.0,0.114737801253796,9.82920551300049,-0.401582330465317
1743283790212519936,0.003195890923962,-0.00852237548679113,-0.00426118774339557,0.114737801253796,9.82920551300049,-0.401582330465317
1743283790217519872,0.00426118774339557,-0.00745707890018821,-0.00213059387169778,0.114737801253796,9.82920551300049,-0.401582330465317
1743283790222529792,0.00213059387169778,-0.00426118774339557,-0.00532648479565978,0.114737801253796,9.82920551300049,-0.401582330465317
1743283790227529984,0.00106529693584889,-0.00639178184792399,-0.003195890923962,0.114737801253796,9.823500261455166,-0.40728754644528875
1743283790232530176,0.0,-0.003195890923962,-0.00106529693584889,0.114737801253796,9.817417676156577,-0.41337009382630485
1743283790237530112,0.003195890923962,-0.00426118774339557,-0.00745707890018821,0.114737801253796,9.811335380891617,-0.4194523511754985
1743283790242530048,0.0,-0.00532648479565978,-0.00532648479565978,0.114737801253796,9.819741328288545,-0.420705288648605
1743283790247539968,0.00106529693584889,-0.00745707890018821,-0.00213059387169778,0.114737801253796,9.831929792851252,-0.420705288648605
1743283790252540160,-0.00213059387169778,-0.00532648479565978,-0.00426118774339557,0.114737801253796,9.844094475609978,-0.420705288648605
1743283790257540096,0.00106529693584889,-0.00532648479565978,-0.00532648479565978,0.10284098051985631,9.844362204656388,-0.4167396835398584
1743283790262540032,-0.00106529693584889,-0.00426118774339557,-0.00745707890018821,0.08459333008233835,9.83827992269838,-0.4106571361588423
1743283790267539968,-0.00106529693584889,-0.003195890923962,-0.00532648479565978,0.06634654974068332,9.832197930759538,-0.4045748788096487
1743283790272550144,0.00106529693584889,-0.00639178184792399,-0.00639178184792399,0.05116463125914802,9.832307510957426,-0.401582330465317
1743283790277550080,-0.00639178184792399,0.0,-0.00532648479565978,0.03900029572146284,9.83838941065403,-0.401582330465317
1743283790282550016,0.0,-0.00106529693584889,-0.00532648479565978,0.026835380128675958,9.844471600365402,-0.401582330465317
1743283790287549952,0.0,0.00106529693584889,-0.00426118774339557,0.02134896281813512,9.850553644832743,-0.4038083247028384
1743283790292550144,0.003195890923962,0.0,-0.00639178184792399,0.02743151316146175,9.856636230131333,-0.4098908720838545
1743283790297560064,0.00213059387169778,-0.00745707890018821,-0.00213059387169778,0.03352595481530127,9.862730706808772,-0.4159853107695922
1743283790302560000,0.003195890923962,-0.00426118774339557,-0.00745707890018821,0.0409710753242272,9.864725626071492,-0.4179801475210913
1743283790307559936,0.00532648479565978,-0.00639178184792399,-0.00106529693584889,0.05313559594695304,9.852561338867691,-0.40581562334376275
1743283790312560128,0.00213059387169778,-0.00213059387169778,-0.00426118774339557,0.06530069663360633,9.840396471611092,-0.3936505191023372
1743283790317560064,0.00106529693584889,-0.00958767253905535,-0.003195890923962,0.07697853619267946,9.82920551300049,-0.3844060073061946
1743283790322569984,-0.00106529693584889,-0.00745707890018821,-0.00426118774339557,0.08307317484938875,9.82920551300049,-0.40878456193303153
1743283790327569920,0.0,-0.003195890923962,-0.00426118774339557,0.08915534232201894,9.82920551300049,-0.43311323182355205
1743283790332570112,0.003195890923962,-0.003195890923962,0.0,0.09523779982218585,9.82920551300049,-0.4574430618242194
1743283790337570048,0.00213059387169778,-0.00213059387169778,-0.00426118774339557,0.0956148356199265,9.823514761504477,-0.4646419210362325
1743283790342569984,0.00639178184792399,-0.00639178184792399,-0.00532648479565978,0.0956148356199265,9.81744763525902,-0.47070900946048494
1743283790347620096,0.00532648479565978,-0.00639178184792399,-0.00426118774339557,0.0956148356199265,9.81132004604459,-0.4768365604767968
1743283790352630016,0.00532648479565978,-0.00213059387169778,-0.003195890923962,0.08591379249719683,9.819783292582157,-0.4829246899568747
1743283790357629952,0.00106529693584889,-0.00532648479565978,-0.00213059387169778,0.07375662032092634,9.831940231480509,-0.48900328255784525
1743283790362629888,0.00106529693584889,-0.00213059387169778,-0.00213059387169778,0.06160002783053113,9.844096590704108,-0.49508158531556756
1743283790367630080,-0.00639178184792399,0.00106529693584889,-0.00106529693584889,0.05340329397309409,9.84832763671875,-0.4892659347863605
1743283790372629760,-0.00106529693584889,-0.00426118774339557,-0.00213059387169778,0.047321034254165,9.84832763671875,-0.4771014106090316
1743283790377629952,0.0,0.00213059387169778,-0.00532648479565978,0.04123848450330042,9.84832763671875,-0.4649363063676058
1743283790382639872,0.0,0.003195890923962,-0.00639178184792399,0.0382459349930286,9.845225881733965,-0.45274742433236975
1743283790387640064,0.00213059387169778,-0.00426118774339557,-0.00213059387169778,0.0382459349930286,9.839143599775957,-0.44058232957033727
1743283790392640000,0.003195890923962,-0.00426118774339557,-0.00639178184792399,0.0382459349930286,9.833061317817949,-0.42841723480830474
1743283790397639936,-0.003195890923962,-0.003195890923962,0.0,0.04714527211683918,9.826980665825483,-0.420705288648605
1743283790402640128,0.0,-0.00745707890018821,-0.00213059387169778,0.07145961528522837,9.820902044804868,-0.420705288648605
1743283790407650048,0.0,-0.00532648479565978,0.00106529693584889,0.09582149269307513,9.814811540155516,-0.420705288648605
1743283790412649984,0.003195890923962,-0.00426118774339557,-0.00213059387169778,0.12013935654628669,9.81143283219146,-0.4180045102131636
1743283790417649920,0.00745707890018821,0.00426118774339557,-0.003195890923962,0.14446839779173823,9.81751512745642,-0.40583998603583504
1743283790422650112,0.00213059387169778,-0.00426118774339557,-0.00213059387169778,0.16879859916504467,9.82359771275501,-0.3936748817944095
1743283790427650048,-0.00213059387169778,-0.00213059387169778,0.0,0.19075518600490707,9.82920551300049,-0.38151037200981414
1743283790432660224,-0.00426118774339557,-0.00213059387169778,-0.00106529693584889,0.1846605449736394,9.82920551300049,-0.3693210899472788
1743283790437659904,-0.00532648479565978,0.0,-0.00213059387169778,0.17857837513130984,9.82920551300049,-0.35715675026261967
1743283790442660096,0.0,-0.00426118774339557,-0.00532648479565978,0.17249591526133054,9.82920551300049,-0.3449918305226611
1743283790447660032,0.003195890923962,-0.00426118774339557,-0.00106529693584889,0.1493345507093377,9.817819372734801,-0.3555994744700158
1743283790452659968,0.00426118774339557,-0.00213059387169778,-0.00532648479565978,0.1250043517058795,9.805654202137623,-0.3677645787114416
1743283790457669888,0.003195890923962,-0.00213059387169778,0.0,0.10062658746500276,9.793465248782745,-0.37995346558084275
1743283790462670080,0.00426118774339557,0.0,-0.00639178184792399,0.09078837149250042,9.805438594519481,-0.382459342479706
1743283790467670016,0.00106529693584889,-0.00213059387169778,-0.00745707890018821,0.08471007583935053,9.823673284919094,-0.382459342479706
1743283790472669952,0.003195890923962,-0.00852237548679113,-0.00639178184792399,0.07863149034329121,9.841908844838061,-0.382459342479706
1743283790477669888,-0.00106529693584889,-0.003195890923962,-0.00213059387169778,0.0764918699860573,9.844386566266367,-0.3942830759289413
1743283790482680064,-0.00213059387169778,-0.003195890923962,-0.00426118774339557,0.0764918699860573,9.838292103503369,-0.4125672715799996
1743283790487680000,0.00106529693584889,-0.003195890923962,-0.00532648479565978,0.0764918699860573,9.832210111564526,-0.4308140531065221
1743283790492680192,0.00213059387169778,0.00106529693584889,-0.00213059387169778,0.07341409716677466,9.835360939923797,-0.4336727047907608
1743283790497679872,0.003195890923962,-0.00745707890018821,-0.00532648479565978,0.06733192850929481,9.847525042638523,-0.4215083745848992
1743283790502680064,-0.00106529693584889,-0.00213059387169778,0.0,0.06124946982422174,9.859689725397248,-0.4093434643241901
1743283790507689984,-0.00213059387169778,-0.00213059387169778,-0.00532648479565978,0.05072745890509856,9.865236887409816,-0.401582330465317
1743283790512690176,0.00213059387169778,-0.003195890923962,-0.003195890923962,0.03247980846758073,9.859154302111227,-0.401582330465317
1743283790517689856,0.0,-0.00106529693584889,-0.00852237548679113,0.014233028125925841,9.853072006846268,-0.401582330465317
1743283790522690048,0.00106529693584889,-0.003195890923962,-0.003195890923962,0.0013373555842869677,9.84832763671875,-0.401582330465317
1743283790527689984,0.00745707890018821,-0.00213059387169778,-0.00532648479565978,0.00741574395838363,9.84832763671875,-0.401582330465317
1743283790532700160,0.003195890923962,-0.00426118774339557,-0.003195890923962,0.013506595767704466,9.84832763671875,-0.401582330465317
1743283790537699840,0.003195890923962,-0.00213059387169778,-0.00213059387169778,0.020509879312216605,9.847865353178795,-0.401582330465317
1743283790542700032,-0.00106529693584889,0.003195890923962,-0.00852237548679113,0.03875725359007655,9.841783163467422,-0.401582330465317
1743283790547699968,0.00106529693584889,0.003195890923962,-0.00213059387169778,0.05700375778524158,9.835701263770819,-0.401582330465317
1743283790552700160,0.00639178184792399,-0.00213059387169778,-0.00106529693584889,0.07525113206310152,9.829619074059446,-0.401582330465317
1743283790557709824,0.00213059387169778,0.0,0.00106529693584889,0.10489614758718835,9.823524624280127,-0.38453975283792585
1743283790562710016,0.003195890923962,0.00106529693584889,-0.00532648479565978,0.1353088963415111,9.817442038981538,-0.3662920917360906
1743283790567709952,0.00106529693584889,0.00213059387169778,-0.003195890923962,0.1657201949361565,9.811359743716578,-0.34804530073062684
1743283790572710144,-0.00106529693584889,0.00426118774339557,-0.00426118774339557,0.18652222871287705,9.805277231296994,-0.344213396310806
1743283790577709824,-0.00426118774339557,0.00532648479565978,-0.00426118774339557,0.20476873350046687,9.799195028278874,-0.344213396310806
1743283790582720000,-0.00106529693584889,0.003195890923962,-0.00532648479565978,0.22305265184515297,9.793100354003789,-0.344213396310806
1743283790587719936,0.00106529693584889,0.00532648479565978,-0.00532648479565978,0.22159311456514413,9.794900625220029,-0.3402721538751476
1743283790592720128,0.003195890923962,0.00852237548679113,-0.00532648479565978,0.2094280150634151,9.800983210518618,-0.3341896064941315
1743283790597719808,-0.00426118774339557,0.0117182666435838,-0.00958767253905535,0.19726349562555703,9.807065505783576,-0.32810734914493783
1743283790602720000,0.0,0.0106529695913196,-0.00852237548679113,0.16977053200607828,9.819279109662375,-0.3189592583899777
1743283790607729920,-0.00532648479565978,0.012783563695848,-0.00958767253905535,0.12711008804020235,9.837561958470934,-0.3067705658805232
1743283790612730112,0.0,0.00852237548679113,-0.00532648479565978,0.08453288198431556,9.855809134277012,-0.2946056556198141
1743283790617729792,0.00213059387169778,0.012783563695848,-0.00852237548679113,0.0419672832247676,9.86745071411133,-0.282444058298953
1743283790622729984,0.0,0.00852237548679113,-0.00532648479565978,-0.0005834637331397358,9.86745071411133,-0.2702866983035885
1743283790627729920,0.003195890923962,0.0117182666435838,-0.0117182666435838,-0.04313218175975973,9.86745071411133,-0.2581299180030549
1743283790632740096,0.00106529693584889,0.00745707890018821,-0.00852237548679113,-0.0764918699860573,9.868776727758693,-0.24196854558590916
1743283790637739776,0.00213059387169778,0.00852237548679113,-0.0106529695913196,-0.0764918699860573,9.874858930776814,-0.2115577058530591
1743283790642739968,0.0,0.00852237548679113,-0.00426118774339557,-0.0764918699860573,9.880941423824167,-0.18114541598241246
1743283790647739904,0.00426118774339557,0.00745707890018821,-0.00532648479565978,-0.0724433138481788,9.884324603133258,-0.15163422120106754
1743283790652740096,0.00639178184792399,0.00958767253905535,-0.00106529693584889,-0.01770036135070114,9.853911979980891,-0.13338656957862544
1743283790657750016,0.0,0.00958767253905535,-0.00213059387169778,0.037149612940234306,9.823439900527303,-0.11510324402348639
1743283790662749952,0.00532648479565978,0.0138488598167896,0.00106529693584889,0.09189256543771197,9.793027277374938,-0.0968555924010443
1743283790667749888,0.00213059387169778,0.0191753450781107,-0.00532648479565978,0.1466329142733336,9.802296772831097,-0.07294013724773474
1743283790672750080,0.003195890923962,0.00958767253905535,-0.00532648479565978,0.20137587388035605,9.814461943428276,-0.04860993646689025
1743283790677750016,-0.003195890923962,0.0202406421303749,-0.003195890923962,0.2561188334873785,9.826627114025454,-0.02427973568604576
1743283790682759936,0.00213059387169778,0.0223712362349033,-0.003195890923962,0.29174743535900677,9.824400308689574,-0.014317790800036725
1743283790687760128,0.00213059387169778,0.0213059391826391,-0.00639178184792399,0.3221597110107796,9.81831781564222,-0.008235332707416752
1743283790692760064,0.003195890923962,0.0223712362349033,-0.00532648479565978,0.35257053652543385,9.8122356126241,-0.0021531646423617497
1743283790697760000,-0.00213059387169778,0.025567127391696,-0.00958767253905535,0.33583088739194505,9.81008243560791,0.011788058751072457
1743283790702759936,-0.00106529693584889,0.0298283156007528,-0.00852237548679113,0.2932550717291766,9.81008243560791,0.03003483909272735
1743283790707770112,-0.00106529693584889,0.0308936107903719,-0.00852237548679113,0.250591956458688,9.81008243560791,0.04831903355648854
1743283790712770048,0.003195890923962,0.0330242030322552,-0.0106529695913196,0.19881969008431163,9.80701682662877,0.04817212684019408
1743283790717769984,0.00745707890018821,0.036220096051693,-0.0138488598167896,0.13799511152792426,9.800934333581418,0.02992475315478723
1743283790722769920,0.00958767253905535,0.037285391241312,-0.0138488598167896,0.0771734332470736,9.794852130563298,0.011678249552047056
1743283790727770112,0.00745707890018821,0.0404812842607498,-0.0159794539213181,0.04481515875820406,9.797528510742112,0.017517930609237547
1743283790732780032,0.00426118774339557,0.0383506901562214,-0.0149141578003764,0.06309848312610235,9.815811636840822,0.0662734638399539
1743283790737779968,0.00213059387169778,0.0458077676594257,-0.0117182666435838,0.08134613356362021,9.834059089396009,0.11493386658656712
1743283790742779904,-0.003195890923962,0.0458077676594257,-0.0149141578003764,0.09694084151782673,9.84832763671875,0.14900572176178353
1743283790747780096,0.00426118774339557,0.0468730665743351,-0.012783563695848,0.10302329901799372,9.84832763671875,0.13075834689147037
1743283790752780032,0.00532648479565978,0.0479383654892445,-0.0106529695913196,0.109105466490624,9.84832763671875,0.1125118421038804
1743283790757790208,0.00852237548679113,0.0543301440775394,-0.0202406421303749,0.1138131794434891,9.849252263932746,0.0956148356199265
1743283790762789888,0.0,0.0564607381820679,-0.0149141578003764,0.1016486600056308,9.861416854462663,0.0956148356199265
1743283790767790080,0.00106529693584889,0.0564607381820679,-0.0181100480258465,0.08948356050390156,9.873582025059841,0.0956148356199265
1743283790772790016,0.00106529693584889,0.0607219263911247,-0.0170447509735823,0.07731904106604327,9.885746615589758,0.0956148356199265
1743283790777789952,0.00532648479565978,0.0607219263911247,-0.0149141578003764,0.031169709513544877,9.88657379150391,0.03896213613292092
1743283790782799872,0.00426118774339557,0.0671137049794197,-0.0149141578003764,-0.01755404767508212,9.88657379150391,-0.02194255916639598
1743283790787800064,0.00213059387169778,0.0692443028092384,-0.00852237548679113,-0.06618273638016402,9.88657379150391,-0.08272841886359646
1743283790792800000,0.00639178184792399,0.0703096017241478,-0.0117182666435838,-0.09566298278855076,9.857817196059887,-0.10040761335371624
1743283790797800192,-0.00426118774339557,0.0703096017241478,-0.00532648479565978,-0.11999318416185742,9.821321987608933,-0.10649016310458093
1743283790802799872,-0.00106529693584889,0.0724401921033859,-0.00745707890018821,-0.1443222254073092,9.784828519345297,-0.11257242282351011
1743283790807810048,-0.00745707890018821,0.0713749006390572,-0.0106529695913196,-0.152983739972115,9.791482665022246,-0.1540307365218325
1743283790812809984,-0.00106529693584889,0.0745707824826241,-0.00532648479565978,-0.152983739972115,9.821893376791333,-0.21485241835723207
1743283790817810176,0.00106529693584889,0.0745707824826241,-0.0106529695913196,-0.152983739972115,9.852305538692114,-0.2756770004683379
1743283790822809856,0.00106529693584889,0.0735054910182953,-0.00639178184792399,-0.16214323971603292,9.907141954213886,-0.3303928094225243
1743283790827810048,0.00106529693584889,0.0777666792273521,-0.00852237548679113,-0.18039089133847486,9.98621525975495,-0.3790532074294407
1743283790832819968,0.00532648479565978,0.0745707824826241,-0.00852237548679113,-0.19867421689361373,10.065443152628038,-0.4278087359111942
1743283790837820160,0.003195890923962,0.0767013803124428,-0.00213059387169778,-0.210352644324303,10.09857636673005,-0.4261885650528309
1743283790842819840,-0.00106529693584889,0.0767013803124428,0.0,-0.210352644324303,10.05004197369363,-0.3351865355627031
1743283790847860224,0.0,0.0809625685214996,-0.003195890923962,-0.210352644324303,10.00111645422437,-0.2434511436681201
1743283790852859904,-0.00106529693584889,0.0756360813975334,0.00532648479565978,-0.1880176216736806,9.942044913402654,-0.17342052340864572
1743283790857860096,-0.00639178184792399,0.0756360813975334,0.00426118774339557,-0.08461583469159381,9.84472563131698,-0.17950298327862502
1743283790862860032,0.0,0.0713749006390572,0.00745707890018821,0.018781021821916682,9.747410989670085,-0.18558515312095458
1743283790867870208,0.00852237548679113,0.0756360813975334,0.00532648479565978,0.11968922680704647,9.660699805249491,-0.18897902324515942
1743283790872869888,0.00639178184792399,0.0756360813975334,-0.003195890923962,0.18659408845473693,9.709357864043042,-0.1585677222807787
1743283790877870080,0.00745707890018821,0.0809625685214996,-0.00106529693584889,0.25350214045394365,9.758018243091174,-0.12815497115660757
1743283790882870016,0.00426118774339557,0.0798972696065903,0.00213059387169778,0.32040700210163414,9.806676301884725,-0.09774367019222685
1743283790887869952,0.00852237548679113,0.0830931663513184,0.00426118774339557,0.2854935563897912,9.787455515067084,-0.08430144036544812
1743283790892879872,0.00639178184792399,0.0841584652662277,-0.00106529693584889,0.24283311361113785,9.763077978083677,-0.07211274191988033
1743283790897880064,0.00213059387169778,0.0948114320635796,-0.00106529693584889,0.2002559087401572,9.738748005894271,-0.05994782573464035
1743283790902880000,-0.00745707890018821,0.0926808342337608,-0.003195890923962,0.1624730029697803,9.75755415475665,-0.05257612289310812
1743283790907880192,-0.0170447509735823,0.0958767309784889,0.0,0.12597770209474457,9.787967081249592,-0.04649357314224355
1743283790912879872,-0.0170447509735823,0.103333801031113,0.00213059387169778,0.08948414141143478,9.818378557574382,-0.04041131342331446
1743283790917890048,-0.0117182666435838,0.101203210651875,0.00213059387169778,0.0725600716330017,9.864591702007706,-0.010723349585408434
1743283790922889984,-0.00745707890018821,0.0980073139071465,0.003195890923962,0.06647402621951416,9.919366116657127,0.031878963566584664
1743283790927890176,-0.00852237548679113,0.0980073139071465,0.00106529693584889,0.06038769059357069,9.974143143218932,0.07448330820554319
1743283790932889856,-0.0287630185484886,0.10759499669075,-0.00639178184792399,0.16159072905370048,9.982920063215648,0.0036544050604026823
1743283790937890048,0.00639178184792399,0.0798972696065903,-0.00106529693584889,0.36839744546650266,9.946424551424109,-0.1788220969449274
1743283790942899968,0.00745707890018821,0.0809625685214996,0.00532648479565978,0.5756084664460093,9.90985769135947,-0.36165533824942864
1743283790947900160,0.0234365332871675,0.0735054910182953,-0.0117182666435838,0.7273544960416881,9.901977416832143,-0.44726687310369895
1743283790952899840,0.025567127391696,0.0745707824826241,-0.0149141578003764,0.7820599837118213,9.944526076837194,-0.3621694441551392
1743283790957900032,0.00745707890018821,0.0894849449396133,-0.0298283156007528,0.8367680800075646,9.987076765770768,-0.2770679573443436
1743283790962899968,-0.00213059387169778,0.082027867436409,-0.0266324244439602,0.8481246978236608,9.995471760168407,-0.2313738412097978
1743283790967910144,0.0138488598167896,0.0692443028092384,-0.0106529695913196,0.7018533605644047,9.879673860772213,-0.32888806446626295
1743283790972909824,0.0191753450781107,0.0735054910182953,-0.0276977196335793,0.5558813317424831,9.764112913392484,-0.42620274876774444
1743283790977910016,0.012783563695848,0.0777666792273521,-0.0181100480258465,0.40720140032968977,9.655298241363532,-0.5059671286970068
1743283790982909952,-0.00958767253905535,0.0905502364039421,-0.00532648479565978,0.22473358980393496,9.6309690603037,-0.3660751456826965
1743283790987910144,-0.0213059391826391,0.105464398860931,-0.0319589078426361,0.042257078319211716,9.606638719109347,-0.22617649193341827
1743283790992919808,-0.0213059391826391,0.109725579619408,-0.00532648479565978,-0.14057617248321475,9.582260812399593,-0.08600433805045127
1743283790997920000,-0.00426118774339557,0.0873543471097946,-0.003195890923962,-0.186975365844674,9.52961901955518,-0.12747929996581625
1743283791002919936,0.0,0.0841584652662277,-0.0223712362349033,-0.22344514923633652,9.474914342099495,-0.1821839655805469
1743283791007920128,0.0159794539213181,0.0862890481948853,-0.0138488598167896,-0.25991667168590715,9.420207056056833,-0.23689123978168802
1743283791012919808,0.00426118774339557,0.0830931663513184,-0.00958767253905535,-0.267721563577652,9.54235648375558,-0.2868433541823921
1743283791017929984,-0.00426118774339557,0.0926808342337608,-0.0426118783652782,-0.267721563577652,9.713009039821307,-0.3356012124180068
1743283791022929920,0.00426118774339557,0.0948114320635796,-0.0266324244439602,-0.267721563577652,9.883312397261792,-0.3842592996483807
1743283791027930112,0.025567127391696,0.0756360813975334,-0.00852237548679113,-0.16195952824549342,9.963528502349956,-0.47992456868509004
1743283791032929792,0.00639178184792399,0.0735054910182953,-0.0213059391826391,0.00225901484281521,9.993939214119036,-0.6015679181376934
1743283791037929984,0.012783563695848,0.0756360813975334,-0.0170447509735823,0.1664853886756324,10.024351376019812,-0.723217068141031
1743283791042939904,0.012783563695848,0.0724401921033859,-0.0202406421303749,0.24554540821769688,10.045663825026496,-0.7565631486691748
1743283791047940096,0.00958767253905535,0.082027867436409,-0.0276977196335793,0.23946285609698395,10.057828995623687,-0.7018202032812421
1743283791052939776,0.00532648479565978,0.0745707824826241,-0.00745707890018821,0.23338059400831954,10.069993586153617,-0.6470798681806156
1743283791057939968,0.0138488598167896,0.082027867436409,-0.0191753450781107,0.2033452798621524,10.040785657926541,-0.6032248562991577
1743283791062939904,0.00958767253905535,0.088419646024704,-0.0170447509735823,0.13035926545119175,9.93738881326152,-0.5788961958874344
1743283791067950080,0.00958767253905535,0.0894849449396133,-0.00106529693584889,0.05722359682156383,9.833779958472013,-0.5545176507588304
1743283791072949760,0.00639178184792399,0.0937461331486702,-0.0213059391826391,-0.03281796236701035,9.75271320343018,-0.5183777839421496
1743283791077949952,0.0202406421303749,0.0990726128220558,-0.0245018284767866,-0.18478491020559307,9.75271320343018,-0.43935495818231907
1743283791082950144,0.0223712362349033,0.0980073139071465,-0.0181100480258465,-0.3367518580441758,9.75271320343018,-0.3603321324224885
1743283791087950080,0.00852237548679113,0.0937461331486702,-0.0245018284767866,-0.4733907280020115,9.756970875892478,-0.28727028847633923
1743283791092960000,0.00106529693584889,0.0937461331486702,-0.0223712362349033,-0.4063518834630442,9.817915338733256,-0.29336472716207695
1743283791097959936,-0.0106529695913196,0.0873543471097946,-0.00958767253905535,-0.3394438433130788,9.878740888378564,-0.29944727454309306
1743283791102960128,-0.0202406421303749,0.0830931663513184,-0.00745707890018821,-0.27253580316311343,9.93956643802387,-0.30552982192410916
1743283791107960064,-0.0181100480258465,0.0926808342337608,-0.0117182666435838,-0.22820994554209983,9.904431462824874,-0.19872166757332932
1743283791112960000,-0.00532648479565978,0.103333801031113,-0.012783563695848,-0.18563273593149454,9.861854314829388,-0.08315496440600284
1743283791117969920,-0.00852237548679113,0.0969420149922371,0.00745707890018821,-0.14297228840395076,9.819193929037423,0.03263767023327957
1743283791122970112,-0.0138488598167896,0.0862890481948853,-0.00106529693584889,-0.12429900521455263,9.82920585464194,-0.004782627547511756
1743283791127970048,-0.0138488598167896,0.0948114320635796,-0.00106529693584889,-0.11213448103722393,9.853534732375659,-0.08385200981792808
1743283791132969984,0.0106529695913196,0.0852237567305565,0.0149141578003764,-0.09996937679579826,9.877864770229435,-0.16292516250378813
1743283791137969920,0.00213059387169778,0.0990726128220558,0.0,-0.15028386618217424,9.902193605806703,-0.18732473896398988
1743283791142980096,0.00958767253905535,0.116117365658283,0.003195890923962,-0.2356088073761043,9.926572302907037,-0.18123009793272224
1743283791147980032,0.00532648479565978,0.10759499669075,0.0117182666435838,-0.3207591519929267,9.950901114979517,-0.17514792809039265
1743283791152979968,0.0,0.0948114320635796,-0.00106529693584889,-0.27513937955178636,9.953942374796627,-0.19035435214769333
1743283791157979904,-0.0106529695913196,0.0948114320635796,-0.003195890923962,-0.09875384059363695,9.935695792327866,-0.22684791994020914
1743283791162980096,-0.00532648479565978,0.0852237567305565,0.0245018284767866,0.07764010929098031,9.91744833977268,-0.2633432279247898
1743283791167990016,-0.00532648479565978,0.0830931663513184,0.00958767253905535,0.23478021294142978,9.931828079041388,-0.33692763436732887
1743283791172990208,-0.0191753450781107,0.0937461331486702,-0.00639178184792399,0.35642938190326634,10.004817388937651,-0.47682414976173043
1743283791177989888,-0.003195890923962,0.0873543471097946,0.00852237548679113,0.4780727503134643,10.077803218512063,-0.6167139945231264
1743283791182990080,0.003195890923962,0.0756360813975334,-0.00426118774339557,0.5723873807025981,10.105234542289171,-0.7162594064339267
1743283791187990016,0.00426118774339557,0.0830931663513184,0.00106529693584889,0.5663051233534044,9.965342357847364,-0.6676013476403762
1743283791193000192,0.0181100480258465,0.0809625685214996,-0.00213059387169778,0.5602103946358443,9.825163331388914,-0.618843517899893
1743283791197999872,0.0159794539213181,0.0756360813975334,0.00426118774339557,0.5453634486168868,9.687894219130499,-0.5675539523740769
1743283791203000064,0.00958767253905535,0.0841584652662277,0.00532648479565978,0.41755040402905846,9.584426536017029,-0.4823452559821913
1743283791208000000,-0.00106529693584889,0.0905502364039421,-0.00426118774339557,0.2897434539026352,9.480963786514236,-0.39714062256457583
1743283791212999936,0.012783563695848,0.0852237567305565,0.00106529693584889,0.1619304093148068,9.377496103400766,-0.3119319261726902
1743283791218009856,0.00426118774339557,0.0905502364039421,-0.00745707890018821,0.07367281595034299,9.438234464044182,-0.22665655481886204
1743283791223010048,-0.00639178184792399,0.0841584652662277,-0.00426118774339557,-0.01142867796547195,9.511178718749955,-0.14155505971887755
1743283791228009984,-0.0276977196335793,0.082027867436409,-0.00639178184792399,-0.09652611401871222,9.584119495282224,-0.05645762248152422
1743283791233010176,-0.00639178184792399,0.0767013803124428,-0.00426118774339557,-0.1338732478847001,9.7097582726838,-0.033462073335302565
1743283791238009856,-0.012783563695848,0.0841584652662277,0.00106529693584889,-0.1582174271674403,9.849737197447915,-0.02737602851461749
1743283791243020032,-0.00639178184792399,0.0916155353188515,-0.0159794539213181,-0.18261152298773992,9.990003142085417,-0.021277504559542575
1743283791248019968,-0.0159794539213181,0.0841584652662277,-0.00958767253905535,-0.11264841251791019,9.99633790734546,-0.0191229674965143
1743283791253020160,0.00106529693584889,0.0649831146001816,0.012783563695848,0.009002591978774288,9.929430075742149,-0.0191229674965143
1743283791258019840,-0.00639178184792399,0.0575260370969772,-0.00426118774339557,0.13064779583629718,9.862525434479844,-0.0191229674965143
1743283791263020032,0.00958767253905535,0.0617872215807438,-0.0181100480258465,0.23092400359494525,9.820045229746267,-0.00385591647631996
1743283791268029952,0.0191753450781107,0.0692443028092384,-0.00213059387169778,0.3101505428975244,9.801762077008709,0.02661582963759946
1743283791273030144,0.0117182666435838,0.0681790038943291,-0.0149141578003764,0.38922249750913107,9.78351459786665,0.05702812010069936
1743283791278029824,0.00532648479565978,0.0671137049794197,-0.0106529695913196,0.42888098886811665,9.774025744699303,0.0655446135151025
1743283791283030016,0.0181100480258465,0.0575260370969772,0.00213059387169778,0.3984682330042489,9.780108329997892,0.03513186179846933
1743283791288029952,-0.00426118774339557,0.0553954392671585,-0.012783563695848,0.3680569273003975,9.78619062526285,0.004720560241654806
1743283791293040128,-0.00213059387169778,0.0617872215807438,-0.0234365332871675,0.3362573609234048,9.804219428560211,-0.02840500968591972
1743283791298039808,-0.00745707890018821,0.0575260370969772,-0.00639178184792399,0.29976435608762375,9.8650411554199,-0.07098018614130491
1743283791303040000,-0.00745707890018821,0.0607219263911247,0.00106529693584889,0.2632696110866224,9.925865782557443,-0.11355739278964491
1743283791308039936,0.00745707890018821,0.0681790038943291,-0.0223712362349033,0.21419079345303693,9.987583803150518,-0.15568105967037177
1743283791313040128,0.012783563695848,0.0617872215807438,-0.00958767253905535,0.007515735108673149,10.060527754708813,-0.1921531349197855
1743283791318049792,0.0106529695913196,0.0692443028092384,-0.00745707890018821,-0.1995633704125034,10.133614310788085,-0.22869651262414997
1743283791323049984,-0.003195890923962,0.0788319706916809,-0.0202406421303749,-0.4062384287568671,10.20655826234638,-0.2651685878735637
1743283791328049920,0.003195890923962,0.0724401921033859,-0.00639178184792399,-0.44334568194414026,10.132422924736465,-0.30168214911044444
1743283791333050112,-0.0138488598167896,0.0617872215807438,0.0,-0.4676913891786152,10.04721305849831,-0.33820070521943907
1743283791338049792,-0.0149141578003764,0.0575260370969772,-0.0117182666435838,-0.49203593554587505,9.962007255290207,-0.37471752002783726
1743283791343059968,-0.00532648479565978,0.051134254783392,-0.003195890923962,-0.391550560722423,9.895921809289865,-0.3920635808677248
1743283791348059904,0.00745707890018821,0.0468730665743351,0.00213059387169778,-0.25782804451217134,9.835138800658168,-0.40422017691040607
1743283791353060096,0.00958767253905535,0.0479383654892445,-0.00745707890018821,-0.12409915175734809,9.774352893594894,-0.416377352639132
1743283791358059776,0.00106529693584889,0.0351548008620739,-0.00106529693584889,-0.0020236800609797073,9.862455645118743,-0.4363828003881427
1743283791363059968,-0.0117182666435838,0.0298283156007528,-0.00426118774339557,0.11361844353092897,10.032875377595055,-0.46072850762261763
1743283791368060160,-0.0106529695913196,0.0351548008620739,0.0,0.2292605671228377,10.203295110071366,-0.48507421485709257
1743283791373070080,-0.00745707890018821,0.0415465831756592,0.00745707890018821,0.2991068812360216,10.125679350011389,-0.4512132816533644
1743283791378070016,0.0117182666435838,0.037285391241312,0.00639178184792399,0.3234367017574397,9.803309341853588,-0.35997641204142405
1743283791383069952,0.0213059391826391,0.0340895019471645,0.00639178184792399,0.347765362169163,9.48095470514382,-0.2687438928428736
1743283791388070144,0.0298283156007528,0.0330242030322552,0.00958767253905535,0.3239210138226397,9.344710817949444,-0.17969626575813735
1743283791393070080,0.0170447509735823,0.0319589078426361,-0.003195890923962,0.21444033710461463,9.539343053123648,-0.09454462139905657
1743283791398080000,-0.003195890923962,0.0394159853458405,-0.00745707890018821,0.1047351756648846,9.73437437208558,-0.009218377797810873
1743283791403079936,-0.0213059391826391,0.0479383654892445,-0.00639178184792399,0.040339063283652374,9.841489592008564,0.09317106477819626
1743283791408080128,-0.0319589078426361,0.0415465831756592,-0.00639178184792399,0.13765838980330672,9.634686041742516,0.25739743979591956
1743283791413080064,-0.0213059391826391,0.0319589078426361,0.00106529693584889,0.2349730758820627,9.427892352412488,0.4216159840690779
1743283791418089984,0.0,0.0234365332871675,0.00106529693584889,0.3297135475392983,9.252111545268491,0.5579704707653115
1743283791423089920,0.00426118774339557,0.00639178184792399,0.012783563695848,0.3905361494680598,9.458908370972608,0.35117361425463456
1743283791428090112,-0.0106529695913196,-0.00426118774339557,-0.00106529693584889,0.4513616517164021,9.665715057762307,0.14436689665690827
1743283791433090048,-0.0213059391826391,0.0138488598167896,-0.0234365332871675,0.5121842536451635,9.872511883466426,-0.062429959853768646
1743283791438089984,-0.0181100480258465,0.0394159853458405,-0.0149141578003764,0.5560022592056403,9.943262622422779,-0.12184289805712573
1743283791443089920,-0.0170447509735823,0.0383506901562214,-0.0202406421303749,0.5985774338837505,10.004084349282474,-0.17050024020786636
1743283791448100096,0.0149141578003764,0.0458077676594257,-0.0351548008620739,0.6412399068552735,10.065030788089857,-0.21925735183609885
1743283791453100032,0.0479383654892445,0.051134254783392,-0.00532648479565978,0.6549827896128121,10.034586735778966,-0.27749461260669034
1743283791458099968,0.0436771735548973,0.0436771735548973,-0.0191753450781107,0.6610614838205323,9.97987892368397,-0.33828139837347443
1743283791463099904,0.0149141578003764,0.0553954392671585,-0.0383506901562214,0.6671398881801596,9.925173720201034,-0.3990652856667811
1743283791468110080,-0.003195890923962,0.0575260370969772,-0.0308936107903719,0.5592836728430125,9.9253442067703,-0.35783659191356487
1743283791473110016,-0.0202406421303749,0.052199549973011,-0.0330242030322552,0.3889829599123743,9.955754918539393,-0.2605219005029857
1743283791478109952,0.00426118774339557,0.0660484060645103,-0.0468730665743351,0.21867412620957782,9.986167080440183,-0.16320256865125388
1743283791483109888,0.0436771735548973,0.0628525167703629,-0.0213059391826391,0.08501011807400664,9.946355247879431,-0.16053530116294273
1743283791488110080,0.0671137049794197,0.0543301440775394,-0.0170447509735823,-0.01231068741921948,9.836869319185984,-0.2517735616450008
1743283791493110016,0.0404812842607498,0.0692443028092384,-0.0351548008620739,-0.10962685240102593,9.727388611068958,-0.34300747164734874
1743283791498120192,0.0138488598167896,0.0671137049794197,-0.0319589078426361,-0.172106698155403,9.663663849912151,-0.32061347711573424
1743283791503119872,-0.0170447509735823,0.0649831146001816,-0.0426118783652782,-0.172106698155403,9.681899119828476,-0.09571310312976072
1743283791508120064,-0.025567127391696,0.0596566312015057,-0.0394159853458405,-0.172106698155403,9.70013525929179,0.12919799520764985
1743283791513120000,-0.0106529695913196,0.0500689558684826,-0.0266324244439602,-0.16169354909652542,9.718372890981254,0.26040995193999456
1743283791518119936,0.0213059391826391,0.037285391241312,-0.025567127391696,-0.11303388731783104,9.736620066787328,0.04752392758509155
1743283791523129856,0.0308936107903719,0.0415465831756592,-0.0266324244439602,-0.06427909650361663,9.754902915595885,-0.16577828630817454
1743283791528130048,0.0170447509735823,0.0447424724698067,-0.0319589078426361,-0.01868501923128336,9.777967548089755,-0.346694321695051
1743283791533129984,-0.003195890923962,0.0426118783652782,-0.0394159853458405,-0.012602758919920465,9.863119075146935,-0.11556844763627508
1743283791538129920,-0.0149141578003764,0.0415465831756592,-0.036220096051693,-0.0065202085765938365,9.948274662646016,0.11556844763627505
1743283791543129856,-0.0159794539213181,0.0330242030322552,-0.0266324244439602,-0.0004379482652309384,10.033426189703196,0.34669432169505104
1743283791548140032,-0.003195890923962,0.0202406421303749,-0.012783563695848,0.05087786714799066,9.88127068673779,0.14851869809708304
1743283791553139968,0.036220096051693,0.0202406421303749,-0.0191753450781107,0.10558253039453047,9.71107832319473,-0.08245654145899456
1743283791558140160,0.0458077676594257,0.0330242030322552,-0.0266324244439602,0.16028980222736783,9.540877844046141,-0.31344279504585554
1743283791563139840,0.0426118783652782,0.0415465831756592,-0.0276977196335793,0.11011729877399509,9.675777144864107,-0.16783132438960977
1743283791568140032,0.00106529693584889,0.036220096051693,-0.0447424724698067,0.03104414727305921,9.894749002250974,0.08155323198477532
1743283791573149952,-0.00745707890018821,0.036220096051693,-0.0479383654892445,-0.04818359125875296,10.114148946904333,0.33142533207513164
1743283791578150144,-0.00958767253905535,0.0308936107903719,-0.0287630185484886,-0.03744255939876094,10.051963572676769,0.26450804629942004
1743283791583149824,0.0138488598167896,0.0117182666435838,-0.0234365332871675,0.023379120066939568,9.833005477310511,0.021221328436618725
1743283791588150016,0.0266324244439602,0.0202406421303749,-0.0149141578003764,0.08420369980823332,9.614036940949765,-0.22207699052855556
1743283791593149952,0.037285391241312,0.0340895019471645,-0.0223712362349033,0.10262258665493662,9.573776736577528,-0.2745509122198569
1743283791598160128,0.0170447509735823,0.0490036569535732,-0.0340895019471645,0.07824366109902062,9.713955763035978,-0.13437208997651637
1743283791603159808,-0.00532648479565978,0.0468730665743351,-0.0170447509735823,0.0539146210384365,9.853847947477785,0.005519890668058414
1743283791608160000,-0.0213059391826391,0.0287630185484886,-0.0308936107903719,0.007949933432163648,9.982894926862137,0.06748283359843107
1743283791613159936,-0.0138488598167896,0.0394159853458405,-0.0415465831756592,-0.0771475014369629,10.092305636961013,-0.011536214672769107
1743283791618160128,0.0181100480258465,0.0340895019471645,-0.0319589078426361,-0.16224899416860766,10.20172156429846,-0.09055903095924138
1743283791623169792,0.0276977196335793,0.0394159853458405,-0.0308936107903719,-0.2127125898096574,10.254629593881944,-0.1452469646488873
1743283791628169984,0.0234365332871675,0.0426118783652782,-0.036220096051693,-0.1336406369754101,10.09648598799471,-0.10875221609316729
1743283791633169920,0.0138488598167896,0.037285391241312,-0.0394159853458405,-0.054572454499394435,9.938349922809643,-0.07225920770283709
1743283791638170112,-0.0159794539213181,0.0266324244439602,-0.0191753450781107,0.017468625215688236,9.793440885957784,-0.037418763832473216
1743283791643170048,-0.0383506901562214,0.0149141578003764,-0.0202406421303749,-0.006861575565156222,9.829936397749316,-0.025253663145819956
1743283791648179968,-0.0149141578003764,0.0287630185484886,-0.0479383654892445,-0.031239341586893996,9.86650325781395,-0.013064779838140916
1743283791653179904,0.00745707890018821,0.0276977196335793,-0.0223712362349033,-0.05556838223991179,9.902997029403698,-0.0009002592154151168
1743283791658180096,0.0404812842607498,0.0245018284767866,-0.012783563695848,-0.09677014902108957,9.719948852221407,0.03377249799700984
1743283791663180032,0.0500689558684826,0.037285391241312,-0.025567127391696,-0.1393202510459603,9.519355267969733,0.07024401334166949
1743283791668179968,0.0468730665743351,0.037285391241312,-0.0159794539213181,-0.1818683241702958,9.318771248546605,0.10671378962875977
1743283791673190144,0.0223712362349033,0.0276977196335793,-0.0138488598167896,-0.16744705067736937,9.474413108264484,0.08144213274430032
1743283791678190080,-0.00852237548679113,0.0223712362349033,-0.0106529695913196,-0.13703574971298865,9.729867992762161,0.038866311749627486
1743283791683190016,-0.0138488598167896,0.0287630185484886,-0.012783563695848,-0.10662299858881753,9.9853350586,-0.0037115394687349257
1743283791688189952,0.0170447509735823,0.0340895019471645,-0.0287630185484886,-0.1693456405415693,10.042878678726053,-0.03852581083726548
1743283791693190144,0.0340895019471645,0.036220096051693,-0.0191753450781107,-0.28491234015417716,9.988136847971834,-0.06893810011545934
1743283791698200064,0.00213059387169778,0.025567127391696,-0.003195890923962,-0.40070497123179155,9.933287997617153,-0.09940984504215625
1743283791703200000,-0.0202406421303749,0.0415465831756592,-0.052199549973011,-0.3986129576318448,9.950951318569876,-0.06948411601015103
1743283791708199936,-0.0223712362349033,0.0479383654892445,-0.0266324244439602,-0.27696775614405744,10.042184837565896,0.02174978451325589
1743283791713200128,-0.0436771735548973,0.012783563695848,0.0213059391826391,-0.1553167540172214,10.13342270702298,0.112988035515921
1743283791718200064,-0.0468730665743351,0.0106529695913196,-0.0383506901562214,-0.07435224921201004,10.196820388159773,0.0929407341006015
1743283791723209984,-0.0191753450781107,0.0340895019471645,-0.0138488598167896,-0.06826148912723236,10.209001977147695,-0.13241737598441597
1743283791728209920,0.0117182666435838,0.0181100480258465,0.0170447509735823,-0.062183192289987047,10.221158639499734,-0.3573143459374425
1743283791733210112,0.0181100480258465,0.0106529695913196,-0.0245018284767866,-0.07128521566604588,10.180182524835672,-0.4823081075754642
1743283791738210048,0.0287630185484886,0.0394159853458405,-0.0117182666435838,-0.13819008560780985,9.936892230867915,-0.22685315672520762
1743283791743209984,0.0490036569535732,0.0468730665743351,-0.0106529695913196,-0.20509814590148562,9.693590335627258,0.028613975468373076
1743283791748219904,0.00852237548679113,0.0308936107903719,-0.0117182666435838,-0.25929207399735643,9.470685788388721,0.24925696824782068
1743283791753220096,0.00532648479565978,0.0191753450781107,-0.0138488598167896,-0.13155850790056609,9.543676205290625,-0.030540353469825143
1743283791758220032,0.00852237548679113,0.0170447509735823,-0.00745707890018821,-0.0038310324754377567,9.616663141817892,-0.31032433371685697
1743283791763219968,0.00426118774339557,0.003195890923962,0.00745707890018821,0.12390253362135256,9.689653558719796,-0.5901216554345027
1743283791768219904,-0.003195890923962,0.0276977196335793,0.003195890923962,0.2404122648953198,9.656088214355592,-0.42126387801345344
1743283791773230080,-0.003195890923962,0.0543301440775394,-0.003195890923962,0.35621040649647107,9.613425798373468,-0.21404614350159235
1743283791778230016,0.00426118774339557,0.0266324244439602,0.012783563695848,0.4717715955855423,9.57085068056814,-0.007252429289722251
1743283791783229952,-0.00852237548679113,0.00426118774339557,-0.0138488598167896,0.43081863334047155,9.66579260773495,-0.13244167532581197
1743283791788229888,-0.00426118774339557,0.003195890923962,-0.0223712362349033,0.34572119491900477,9.79951731418861,-0.3512636508727251
1743283791793230080,0.00532648479565978,0.012783563695848,-0.003195890923962,0.2606196986348504,9.93324839729128,-0.5700960609232645
1743283791798240000,0.0202406421303749,0.0330242030322552,-0.0191753450781107,0.17531817675217637,9.947373682353176,-0.5612079641826591
1743283791803239936,0.0191753450781107,0.0543301440775394,-0.00532648479565978,0.09016376582530908,9.892631548262985,-0.42131143456938375
1743283791808239872,0.00426118774339557,0.0500689558684826,-0.00532648479565978,0.005013415284238404,9.837892024421418,-0.28142157558979203
1743283791813240064,-0.00852237548679113,0.037285391241312,-0.0479383654892445,-0.06516173811659004,9.863914052341816,-0.24324973696614471
1743283791818240000,0.00639178184792399,0.0298283156007528,-0.0245018284767866,-0.11986723407551686,9.973325065573714,-0.3101120096732645
1743283791823250176,-0.00426118774339557,0.0276977196335793,-0.0138488598167896,-0.17468490095267525,10.08296042068578,-0.37711138016906426
1743283791828249856,0.0159794539213181,0.0383506901562214,-0.0447424724698067,-0.20403888114475377,10.110099536430033,-0.3870318852976683
1743283791833250048,0.0170447509735823,0.0404812842607498,-0.0117182666435838,-0.18589524708042024,9.983093975450046,-0.2902658377400025
1743283791838249984,0.00213059387169778,0.0287630185484886,0.0170447509735823,-0.16775247815217595,9.856094470428527,-0.19350440424144208
