#timestamp [ns],w_RS_S_x [rad s^-1],w_RS_S_y [rad s^-1],w_RS_S_z [rad s^-1],a_RS_S_x [m s^-2],a_RS_S_y [m s^-2],a_RS_S_z [m s^-2]
1743272149892489984,0.0,0.0,0.0,0.210352644324303,9.77183628082275,-0.4955651153383221
1743272149897489920,0.00106529693584889,-0.00532648479565978,0.00213059387169778,0.210352644324303,9.77183628082275,-0.4894748918939669
1743272149902489856,-0.00106529693584889,-0.00639178184792399,-0.00213059387169778,0.210352644324303,9.77183628082275,-0.48338495884744903
1743272149907490048,0.0,-0.00532648479565978,-0.00106529693584889,0.210352644324303,9.772615724098706,-0.478074163198471
1743272149912489984,0.00639178184792399,-0.00426118774339557,-0.003195890923962,0.210352644324303,9.778705778100221,-0.478074163198471
1743272149917499904,0.00213059387169778,-0.00745707890018821,-0.00426118774339557,0.210352644324303,9.784808319456754,-0.478074163198471
1743272149922499840,0.00213059387169778,-0.00852237548679113,-0.00639178184792399,0.210352644324303,9.790898373458269,-0.478074163198471
1743272149927500032,-0.003195890923962,-0.00426118774339557,-0.00426118774339557,0.210352644324303,9.79698862630275,-0.4841034030969882
1743272149932499968,-0.00106529693584889,-0.00106529693584889,-0.00532648479565978,0.210352644324303,9.803078587821934,-0.4901933361435061
1743272149937499904,-0.003195890923962,-0.00213059387169778,-0.00213059387169778,0.210352644324303,9.809168839740314,-0.49628355958786124
1743272149942500096,-0.003195890923962,-0.00639178184792399,-0.00426118774339557,0.210352644324303,9.799728966280647,-0.4920204407234669
1743272149947510016,0.003195890923962,-0.00426118774339557,-0.00106529693584889,0.210352644324303,9.787524464374792,-0.48591821830066295
1743272149952510208,0.00106529693584889,-0.00213059387169778,-0.00532648479565978,0.210352644324303,9.77534377556455,-0.4798279023699988
1743272149957509888,0.00106529693584889,-0.00426118774339557,-0.00639178184792399,0.210352644324303,9.776172521603089,-0.4824103837053903
1743272149962510080,-0.00213059387169778,-0.00213059387169778,-0.00213059387169778,0.210352644324303,9.782262773521467,-0.4885006071497455
1743272149967510016,-0.00106529693584889,-0.00213059387169778,-0.00532648479565978,0.210352644324303,9.78835273504065,-0.49459054019626336
1743272149972510208,-0.00532648479565978,-0.003195890923962,-0.00426118774339557,0.210352644324303,9.79095935821533,-0.497197151184082
1743272149977519872,0.00106529693584889,-0.003195890923962,-0.00745707890018821,0.210352644324303,9.79095935821533,-0.497197151184082
1743272149982520064,0.00213059387169778,-0.00745707890018821,-0.00426118774339557,0.210352644324303,9.79095935821533,-0.497197151184082
1743272149987520000,0.00213059387169778,-0.00639178184792399,-0.00639178184792399,0.210352644324303,9.79095935821533,-0.4945420034368923
1743272149992520192,-0.00213059387169778,-0.00532648479565978,-0.00213059387169778,0.210352644324303,9.79095935821533,-0.48845168750622814
1743272149997519872,0.00106529693584889,-0.00745707890018821,-0.00532648479565978,0.210352644324303,9.79095935821533,-0.48236166197781133
1743272150002520064,0.003195890923962,-0.00213059387169778,-0.00532648479565978,0.21215543128884193,9.79095935821533,-0.4798769529725773
1743272150007529984,-0.00106529693584889,-0.003195890923962,-0.00532648479565978,0.2182575515346306,9.79095935821533,-0.48597908272826273
1743272150012530176,0.00106529693584889,-0.00426118774339557,-0.00745707890018821,0.22434776548764446,9.79095935821533,-0.49206930617261796
1743272150017529856,0.00213059387169778,-0.00426118774339557,-0.00106529693584889,0.22755139946598105,9.791921465358863,-0.4962350485387315
1743272150022530048,0.00213059387169778,-0.0106529695913196,-0.003195890923962,0.2153707818418808,9.798011809763983,-0.49014473260806735
1743272150027529984,0.003195890923962,-0.00639178184792399,0.0,0.2031907450215963,9.8041018637655,-0.48405470707965054
1743272150032530176,-0.00106529693584889,-0.003195890923962,-0.00213059387169778,0.19133944153682528,9.80986289381646,-0.478074163198471
1743272150037539840,-0.00213059387169778,-0.003195890923962,-0.00532648479565978,0.1974415665375625,9.797658577245707,-0.478074163198471
1743272150042540032,-0.00213059387169778,-0.00532648479565978,-0.00745707890018821,0.2035317852362472,9.78547807340895,-0.478074163198471
1743272150047539968,-0.00213059387169778,-0.00213059387169778,-0.00639178184792399,0.20962171353732087,9.773298150370582,-0.478074163198471
1743272150052540160,0.00213059387169778,-0.00426118774339557,-0.00426118774339557,0.21571542990162765,9.777199099830774,-0.48343695713347057
1743272150057539840,0.003195890923962,-0.00106529693584889,-0.003195890923962,0.22180933271073494,9.783293040628243,-0.4895308694396681
1743272150062540032,0.0,-0.00852237548679113,-0.003195890923962,0.22790352610697728,9.789387272014658,-0.49562507233345354
1743272150067539968,0.00426118774339557,-0.00852237548679113,-0.003195890923962,0.2249567288034689,9.79095935821533,-0.49267827043748597
1743272150072550144,0.0,-0.00426118774339557,-0.00639178184792399,0.21885431816029546,9.79095935821533,-0.4865758502839632
1743272150077549824,-0.00213059387169778,-0.00426118774339557,-0.00639178184792399,0.21276439460466634,9.79095935821533,-0.4804859172374453
1743272150082550016,0.00213059387169778,-0.00639178184792399,-0.00532648479565978,0.210352644324303,9.79095935821533,-0.478074163198471
1743272150087549952,0.00213059387169778,-0.00426118774339557,-0.00426118774339557,0.210352644324303,9.79095935821533,-0.478074163198471
1743272150092550144,-0.00106529693584889,-0.00639178184792399,-0.003195890923962,0.210352644324303,9.79095935821533,-0.478074163198471
1743272150097549824,0.00106529693584889,-0.003195890923962,0.00213059387169778,0.210352644324303,9.79095935821533,-0.4808997770648339
1743272150102560000,-0.003195890923962,-0.00745707890018821,-0.00213059387169778,0.210352644324303,9.79095935821533,-0.4870022898898852
1743272150107559936,0.003195890923962,-0.00745707890018821,-0.00213059387169778,0.210352644324303,9.79095935821533,-0.493092315418302
1743272150112560128,-0.00106529693584889,-0.00213059387169778,-0.00213059387169778,0.210352644324303,9.792944817511819,-0.495211701170299
1743272150117559808,0.00213059387169778,-0.00532648479565978,0.00106529693584889,0.210352644324303,9.799034779031002,-0.48912176812378116
1743272150122560000,0.003195890923962,-0.00532648479565978,-0.003195890923962,0.210352644324303,9.805125030949382,-0.483031544679426
1743272150127559936,-0.00426118774339557,-0.003195890923962,0.0,0.210352644324303,9.808949861548212,-0.478074163198471
1743272150132570112,0.00106529693584889,-0.00213059387169778,0.0,0.210352644324303,9.802847320191681,-0.478074163198471
1743272150137569792,0.00213059387169778,-0.00639178184792399,-0.00639178184792399,0.210352644324303,9.796757266190165,-0.478074163198471
1743272150142569984,0.003195890923962,-0.003195890923962,-0.003195890923962,0.210352644324303,9.791251976837925,-0.4783667804529728
1743272150147569920,-0.00106529693584889,-0.00532648479565978,-0.00106529693584889,0.210352644324303,9.797345825034977,-0.484460600159187
1743272150152570112,-0.00213059387169778,-0.00532648479565978,-0.003195890923962,0.210352644324303,9.80343996381656,-0.49055471044857346
1743272150157569792,0.00213059387169778,-0.00958767253905535,0.0,0.210352644324303,9.809533812013612,-0.4966485301547876
1743272150162579968,-0.00106529693584889,-0.00852237548679113,-0.003195890923962,0.2047984152701923,9.804528176257714,-0.49164291780195907
1743272150167579904,-0.00213059387169778,-0.00106529693584889,-0.00426118774339557,0.19870839448729175,9.798438122256197,-0.4855528922735422
1743272150172580096,0.00106529693584889,-0.00639178184792399,-0.00639178184792399,0.19261808330237015,9.792347777851077,-0.4794625763428781
1743272150177580032,-0.00106529693584889,-0.00106529693584889,-0.003195890923962,0.19593149896016598,9.79095935821533,-0.478074163198471
1743272150182579968,0.00213059387169778,-0.00958767253905535,-0.003195890923962,0.20202142726123962,9.79095935821533,-0.478074163198471
1743272150187580160,0.0,-0.00532648479565978,-0.00532648479565978,0.20811164595992432,9.79095935821533,-0.478074163198471
1743272150192590080,0.00426118774339557,-0.0117182666435838,-0.00532648479565978,0.210352644324303,9.787098210518078,-0.48193529284352854
1743272150197590016,0.003195890923962,-0.00639178184792399,0.0,0.210352644324303,9.7810079585997,-0.4880255162878837
1743272150202589952,0.00426118774339557,-0.003195890923962,-0.003195890923962,0.210352644324303,9.774917997080514,-0.4941154493344016
1743272150207590144,0.00213059387169778,0.0,-0.00852237548679113,0.210352644324303,9.774846782308696,-0.49418666377326675
1743272150212590080,0.00213059387169778,-0.003195890923962,-0.00426118774339557,0.210352644324303,9.780940723106164,-0.4880927514670692
1743272150217590016,0.0,-0.00426118774339557,-0.00426118774339557,0.210352644324303,9.78703495449258,-0.4819985485732837
1743272150222589952,-0.00213059387169778,-0.00532648479565978,-0.00426118774339557,0.210352644324303,9.79095935821533,-0.48024227345193066
1743272150227600128,0.00106529693584889,0.0,-0.003195890923962,0.210352644324303,9.79095935821533,-0.48634469360545346
1743272150232600064,-0.00106529693584889,-0.003195890923962,-0.003195890923962,0.210352644324303,9.79095935821533,-0.4924346266519713
1743272150237600000,0.0,-0.00532648479565978,-0.00106529693584889,0.20902492628417993,9.79095935821533,-0.49586943210936346
1743272150242599936,-0.00532648479565978,-0.00532648479565978,-0.00426118774339557,0.20293490550127938,9.79095935821533,-0.48977940658094665
1743272150247600128,0.003195890923962,-0.00639178184792399,-0.00213059387169778,0.19684459431635778,9.79095935821533,-0.48368909065028254
1743272150252600064,0.0,-0.00745707890018821,-0.003195890923962,0.19170476173151083,9.79095935821533,-0.4785492540603328
1743272150257609984,-0.00106529693584889,-0.00852237548679113,0.003195890923962,0.1978071771298591,9.79095935821533,-0.4846516742138556
1743272150262609920,-0.00106529693584889,-0.0106529695913196,-0.00532648479565978,0.20389710543093276,9.79095935821533,-0.4907416072603734
1743272150267610112,0.00106529693584889,-0.00106529693584889,0.00213059387169778,0.20998732412961746,9.79095935821533,-0.4968318307047286
1743272150272610048,0.00106529693584889,-0.00106529693584889,-0.00426118774339557,0.210352644324303,9.79095935821533,-0.4857479349713058
1743272150277609984,0.00213059387169778,-0.00213059387169778,-0.003195890923962,0.210352644324303,9.79095935821533,-0.4735674975739364
1743272150282609920,0.00213059387169778,-0.00426118774339557,-0.00958767253905535,0.210352644324303,9.79095935821533,-0.46138764097178914
1743272150287620096,0.0,-0.00426118774339557,-0.003195890923962,0.210352644324303,9.79095935821533,-0.46872598268073523
1743272150292620032,0.0,-0.00532648479565978,-0.00639178184792399,0.210352644324303,9.79095935821533,-0.48091379779604043
1743272150297619968,0.00213059387169778,-0.00958767253905535,0.00106529693584889,0.210352644324303,9.79095935821533,-0.49310219408606853
1743272150302619904,0.003195890923962,-0.00532648479565978,-0.00852237548679113,0.210352644324303,9.786915549424398,-0.4931533612993478
1743272150307620096,-0.00106529693584889,-0.00958767253905535,-0.00639178184792399,0.210352644324303,9.780825297506018,-0.48706313785499256
1743272150312620032,0.003195890923962,-0.00852237548679113,-0.003195890923962,0.210352644324303,9.774735335986835,-0.4809732048084747
1743272150317629952,0.0,-0.00426118774339557,-0.00532648479565978,0.20714921963038396,9.775039722990064,-0.478074163198471
1743272150322629888,-0.00106529693584889,-0.00106529693584889,-0.003195890923962,0.2010591988474834,9.781129776991579,-0.478074163198471
1743272150327630080,-0.00213059387169778,-0.00852237548679113,-0.00106529693584889,0.19496888766256185,9.787220121396699,-0.478074163198471
1743272150332630016,0.0,-0.00745707890018821,-0.00639178184792399,0.191229671239853,9.79095935821533,-0.478074163198471
1743272150337629952,0.00106529693584889,-0.00852237548679113,-0.00639178184792399,0.191229671239853,9.79095935821533,-0.478074163198471
1743272150342629888,-0.003195890923962,-0.00639178184792399,-0.00426118774339557,0.191229671239853,9.79095935821533,-0.478074163198471
1743272150347640064,-0.00106529693584889,-0.00213059387169778,-0.003195890923962,0.19275222591452415,9.79095935821533,-0.478074163198471
1743272150352640000,0.0,-0.00639178184792399,-0.00106529693584889,0.1988421542155978,9.79095935821533,-0.478074163198471
1743272150357629952,0.00213059387169778,-0.00213059387169778,-0.003195890923962,0.20492017621461892,9.79095935821533,-0.478074163198471
1743272150362639872,0.0,-0.003195890923962,-0.00106529693584889,0.20968254986872403,9.79095935821533,-0.478074163198471
1743272150367640064,0.00106529693584889,-0.00213059387169778,-0.00532648479565978,0.20358835172370995,9.79095935821533,-0.478074163198471
1743272150372640000,0.00106529693584889,-0.00532648479565978,-0.00213059387169778,0.19749444416605738,9.79095935821533,-0.478074163198471
1743272150377639936,0.00106529693584889,-0.00426118774339557,0.0,0.1914002460210433,9.79095935821533,-0.478074163198471
1743272150382639872,0.003195890923962,-0.0117182666435838,-0.00213059387169778,0.19714913614324744,9.79095935821533,-0.4839936327144798
1743272150387640064,0.00106529693584889,-0.00745707890018821,-0.00106529693584889,0.20323935484193215,9.79095935821533,-0.490083856158835
1743272150392649984,0.0,-0.00213059387169778,-0.00426118774339557,0.2093414798426694,9.79095935821533,-0.49618598591452046
1743272150397649920,0.0,0.003195890923962,-0.00532648479565978,0.210352644324303,9.796038517267665,-0.49211801587856435
1743272150402650112,0.003195890923962,-0.00532648479565978,-0.00213059387169778,0.210352644324303,9.802128861672784,-0.48602769994790024
1743272150407650048,-0.00106529693584889,-0.012783563695848,0.00106529693584889,0.210352644324303,9.808218915674301,-0.4799376744194834
1743272150412649984,0.00213059387169778,-0.00532648479565978,-0.00106529693584889,0.210352644324303,9.805852977760974,-0.478074163198471
1743272150417649920,0.00213059387169778,-0.00745707890018821,-0.003195890923962,0.210352644324303,9.799759129563922,-0.478074163198471
1743272150422660096,0.00106529693584889,-0.00852237548679113,-0.00213059387169778,0.210352644324303,9.793652786232043,-0.478074163198471
1743272150427660032,0.00426118774339557,-0.003195890923962,-0.00532648479565978,0.210352644324303,9.79095935821533,-0.48147239869083436
1743272150432660224,0.0,-0.00639178184792399,-0.003195890923962,0.210352644324303,9.79095935821533,-0.4875626221351895
1743272150437659904,-0.00106529693584889,-0.003195890923962,-0.00532648479565978,0.210352644324303,9.79095935821533,-0.4936525551817074
1743272150442660096,0.00106529693584889,-0.00532648479565978,-0.00213059387169778,0.210352644324303,9.79095935821533,-0.497197151184082
1743272150447660032,-0.00213059387169778,-0.00532648479565978,-0.003195890923962,0.210352644324303,9.79095935821533,-0.497197151184082
1743272150452670208,0.00106529693584889,-0.00106529693584889,-0.00213059387169778,0.210352644324303,9.79095935821533,-0.497197151184082
1743272150457669888,0.00639178184792399,-0.00852237548679113,-0.00213059387169778,0.210352644324303,9.792664582288605,-0.4954919350833165
1743272150462670080,0.00426118774339557,-0.0106529695913196,-0.003195890923962,0.210352644324303,9.798754834206985,-0.4894017116389613
1743272150467670016,-0.00745707890018821,-0.00426118774339557,-0.00745707890018821,0.210352644324303,9.804844795726169,-0.48331177859244345
1743272150472669952,0.00106529693584889,-0.00639178184792399,-0.003195890923962,0.210352644324303,9.809229810623481,-0.478074163198471
1743272150477669888,0.0,-0.00426118774339557,-0.00426118774339557,0.210352644324303,9.803139756621967,-0.478074163198471
1743272150482680064,0.00426118774339557,-0.00745707890018821,0.00106529693584889,0.210352644324303,9.797037215265433,-0.478074163198471
1743272150487680000,0.00213059387169778,-0.00745707890018821,-0.00213059387169778,0.210352644324303,9.79095935821533,-0.478074163198471
1743272150492680192,-0.00213059387169778,-0.00639178184792399,-0.00532648479565978,0.210352644324303,9.79095935821533,-0.478074163198471
1743272150497679872,0.0,-0.00532648479565978,-0.00106529693584889,0.210352644324303,9.79095935821533,-0.478074163198471
1743272150502680064,0.0,-0.00106529693584889,0.00213059387169778,0.210352644324303,9.79095935821533,-0.478074163198471
1743272150507680000,-0.00106529693584889,-0.00426118774339557,-0.003195890923962,0.20510304699024678,9.79620898418383,-0.48332376462316184
1743272150512679936,-0.00106529693584889,-0.00639178184792399,-0.00639178184792399,0.1990127358053252,9.80229932858895,-0.48941408055382596
1743272150517689856,-0.00532648479565978,-0.00639178184792399,-0.00106529693584889,0.19291051813754162,9.808401579541878,-0.49551630297662996
1743272150522690048,0.00106529693584889,-0.00426118774339557,-0.00106529693584889,0.19563906856585092,9.805673014230422,-0.49278775042215706
1743272150527689984,-0.00213059387169778,-0.00852237548679113,-0.00213059387169778,0.20172899686692455,9.799583052711238,-0.4866978173756392
1743272150532690176,-0.00213059387169778,-0.00106529693584889,-0.003195890923962,0.20781921556560926,9.79349280079286,-0.48060759393128405
1743272150537689856,-0.00106529693584889,-0.0117182666435838,-0.003195890923962,0.210352644324303,9.79095935821533,-0.478074163198471
1743272150542690048,0.0,-0.00426118774339557,-0.003195890923962,0.210352644324303,9.79095935821533,-0.478074163198471
1743272150547699968,-0.00106529693584889,-0.00639178184792399,-0.00532648479565978,0.210352644324303,9.79095935821533,-0.478074163198471
1743272150552700160,0.00106529693584889,-0.00639178184792399,-0.00213059387169778,0.210352644324303,9.788243213297292,-0.4807902954175966
1743272150557699840,0.00106529693584889,-0.00532648479565978,-0.00426118774339557,0.210352644324303,9.782153159295778,-0.4868803209460134
1743272150562700032,0.003195890923962,-0.00639178184792399,-0.00213059387169778,0.210352644324303,9.776062814890656,-0.4929706368766775
1743272150567699968,0.00532648479565978,-0.00852237548679113,-0.00426118774339557,0.210352644324303,9.773699772457322,-0.495333668261975
1743272150572699904,-0.00106529693584889,-0.003195890923962,-0.00213059387169778,0.210352644324303,9.779790024375702,-0.48924344481761983
1743272150577709824,0.003195890923962,-0.00213059387169778,-0.003195890923962,0.210352644324303,9.785892182661078,-0.48314131506193436
1743272150582710016,0.00213059387169778,0.00106529693584889,-0.003195890923962,0.210352644324303,9.79095935821533,-0.4790972503157574
1743272150587709952,0.00213059387169778,-0.00532648479565978,-0.00213059387169778,0.210352644324303,9.79095935821533,-0.4851872758441742
1743272150592710144,-0.00426118774339557,-0.00532648479565978,-0.00639178184792399,0.210352644324303,9.79095935821533,-0.4912775917748383
1743272150597709824,0.003195890923962,-0.00639178184792399,-0.003195890923962,0.21018218092662383,9.790788893887841,-0.497197151184082
1743272150602710016,-0.00106529693584889,-0.003195890923962,-0.00532648479565978,0.20409196222793913,9.784698641969463,-0.497197151184082
1743272150607719936,0.00106529693584889,0.0,-0.00426118774339557,0.19798983722720187,9.778596483684087,-0.497197151184082
1743272150612720128,0.0,-0.00106529693584889,-0.00532648479565978,0.1918996185285172,9.772506231765707,-0.497197151184082
1743272150617719808,-0.00106529693584889,0.0,-0.00426118774339557,0.19664973456025048,9.777256373707415,-0.497197151184082
1743272150622720000,-0.00213059387169778,-0.00639178184792399,-0.00639178184792399,0.20274004574517207,9.783346718112535,-0.497197151184082
1743272150627720192,0.00213059387169778,-0.00639178184792399,-0.00532648479565978,0.20883035693009364,9.789437062517655,-0.497197151184082
1743272150632719872,-0.00106529693584889,-0.0149141578003764,-0.00639178184792399,0.210352644324303,9.79095935821533,-0.4926294836008156
1743272150637729792,0.00106529693584889,-0.00426118774339557,-0.003195890923962,0.210352644324303,9.79095935821533,-0.48652735384513013
1743272150642729984,0.0,-0.00426118774339557,-0.003195890923962,0.210352644324303,9.79095935821533,-0.48043713040077496
1743272150647730176,0.0,-0.00639178184792399,-0.003195890923962,0.20662539098663288,9.79095935821533,-0.478074163198471
1743272150652730112,0.0,-0.00532648479565978,-0.00532648479565978,0.20053546268555922,9.79095935821533,-0.478074163198471
1743272150657730048,0.003195890923962,-0.00958767253905535,-0.00532648479565978,0.19444524398687452,9.79095935821533,-0.478074163198471
1743272150662729984,0.0,-0.00532648479565978,-0.003195890923962,0.19410407044395148,9.79383377309812,-0.478074163198471
1743272150667740160,0.0,-0.00426118774339557,-0.00106529693584889,0.2002065785137561,9.799936314454653,-0.478074163198471
1743272150672740096,-0.00213059387169778,0.003195890923962,-0.00532648479565978,0.20629659929665664,9.80602636845617,-0.478074163198471
1743272150677740032,0.00426118774339557,-0.00213059387169778,0.0,0.20831840905898324,9.808048189246655,-0.48010840004892436
1743272150682739968,-0.003195890923962,0.0,-0.00213059387169778,0.20222848075790958,9.801958227727471,-0.48619833309544225
1743272150687740160,0.0,-0.00426118774339557,-0.00426118774339557,0.19613826205922488,9.795867975809092,-0.4922885565397974
1743272150692739840,-0.00106529693584889,-0.003195890923962,-0.00532648479565978,0.19241102666137982,9.79095935821533,-0.4948344403410283
1743272150697740032,0.00213059387169778,-0.00639178184792399,-0.003195890923962,0.19850133784630142,9.79095935821533,-0.4826538179711852
1743272150702749952,-0.00213059387169778,-0.00213059387169778,-0.00426118774339557,0.204603555514085,9.79095935821533,-0.47044938263561803
1743272150707750144,-0.00106529693584889,-0.00639178184792399,-0.00532648479565978,0.210352644324303,9.79095935821533,-0.459292639710518
1743272150712750080,0.0,-0.00745707890018821,-0.003195890923962,0.210352644324303,9.79095935821533,-0.4653864499197865
1743272150717750016,-0.00213059387169778,-0.00426118774339557,-0.00213059387169778,0.210352644324303,9.79095935821533,-0.47148055071177447
1743272150722749952,0.00106529693584889,-0.003195890923962,-0.00639178184792399,0.210352644324303,9.79095935821533,-0.47757436092104305
1743272150727750144,0.00106529693584889,-0.00213059387169778,-0.00213059387169778,0.210352644324303,9.796550208419763,-0.4836649872637555
1743272150732760064,0.0,-0.00213059387169778,-0.00426118774339557,0.210352644324303,9.802652459372691,-0.48976720968655946
1743272150737760000,0.00213059387169778,-0.00532648479565978,-0.00213059387169778,0.210352644324303,9.808742803777811,-0.4958575256172236
1743272150742759936,0.0,-0.00213059387169778,0.0,0.210352644324303,9.80058173554298,-0.49244682336113893
1743272150747760128,-0.003195890923962,-0.003195890923962,-0.00745707890018821,0.210352644324303,9.788401231706223,-0.4863565999167837
1743272150752759808,0.00106529693584889,-0.00639178184792399,-0.00426118774339557,0.210352644324303,9.776221308667855,-0.48026666687026587
1743272150757760000,0.0,-0.00426118774339557,-0.00426118774339557,0.210352644324303,9.77183628082275,-0.48197188297103133
1743272150762769920,-0.00106529693584889,-0.00426118774339557,0.00106529693584889,0.210352644324303,9.77183628082275,-0.4880740127267168
1743272150767770112,0.0,-0.003195890923962,-0.00106529693584889,0.210352644324303,9.77183628082275,-0.49416423617107197
1743272150772770048,-0.00106529693584889,-0.003195890923962,-0.00426118774339557,0.210352644324303,9.774893359573118,-0.497197151184082
1743272150777769984,0.00532648479565978,-0.00532648479565978,-0.00213059387169778,0.210352644324303,9.780983703978238,-0.497197151184082
1743272150782769920,-0.00106529693584889,-0.0106529695913196,-0.00426118774339557,0.210352644324303,9.787073757979753,-0.497197151184082
1743272150787770112,0.00106529693584889,-0.00639178184792399,0.003195890923962,0.210352644324303,9.79316547597376,-0.4949910437400126
1743272150792780032,0.0,-0.00426118774339557,-0.00532648479565978,0.210352644324303,9.799271528721109,-0.48888501954056207
1743272150797779968,0.00106529693584889,-0.00426118774339557,-0.00532648479565978,0.210352644324303,9.805365667502691,-0.4827909092511756
1743272150802779904,0.00106529693584889,-0.00639178184792399,-0.00532648479565978,0.210352644324303,9.808706212923575,-0.478074163198471
1743272150807780096,0.00213059387169778,-0.00639178184792399,-0.00426118774339557,0.210352644324303,9.802615868518455,-0.478074163198471
1743272150812779776,-0.003195890923962,-0.00426118774339557,-0.00426118774339557,0.210352644324303,9.79652581451694,-0.478074163198471
1743272150817779968,0.0,-0.00852237548679113,-0.003195890923962,0.2098287670339908,9.79095935821533,-0.478074163198471
1743272150822789888,-0.003195890923962,-0.00426118774339557,0.00106529693584889,0.20372664203325358,9.79095935821533,-0.478074163198471
1743272150827790080,0.00106529693584889,-0.00426118774339557,-0.00426118774339557,0.19763642333456888,9.79095935821533,-0.478074163198471
1743272150832790016,-0.00213059387169778,-0.00426118774339557,-0.00745707890018821,0.19154649503349522,9.79095935821533,-0.478074163198471
1743272150837789952,0.0,-0.00745707890018821,0.00106529693584889,0.20277645655114515,9.79095935821533,-0.478074163198471
1743272150842789888,0.00426118774339557,-0.00532648479565978,-0.003195890923962,0.2149563084078479,9.79095935821533,-0.478074163198471
1743272150847790080,-0.00106529693584889,-0.003195890923962,-0.003195890923962,0.22713674105954645,9.79095935821533,-0.478074163198471
1743272150852800000,-0.00426118774339557,-0.00426118774339557,-0.00745707890018821,0.21962263759550016,9.79095935821533,-0.4830006514128003
1743272150857799936,0.0,-0.00426118774339557,-0.00213059387169778,0.20745753809377113,9.79095935821533,-0.4890832082732097
1743272150862829824,-0.00213059387169778,-0.00745707890018821,-0.00213059387169778,0.19521993060817236,9.79095935821533,-0.49520201916792916
1743272150867830016,0.0,-0.00745707890018821,-0.00532648479565978,0.19532224477220866,9.79095935821533,-0.49310457446267736
1743272150872829952,0.00213059387169778,-0.00852237548679113,-0.00639178184792399,0.20141217307328232,9.79095935821533,-0.4870146414161595
1743272150877830144,-0.00106529693584889,-0.003195890923962,-0.00639178184792399,0.20750239177196703,9.79095935821533,-0.4809244179718043
1743272150882829824,0.00213059387169778,-0.00426118774339557,-0.003195890923962,0.210352644324303,9.79095935821533,-0.4813138906695033
1743272150887830016,0.003195890923962,-0.00639178184792399,-0.00639178184792399,0.210352644324303,9.79095935821533,-0.4874042066001674
1743272150892829952,0.00213059387169778,-0.00532648479565978,-0.00213059387169778,0.210352644324303,9.79095935821533,-0.49349423212858423
1743272150897840128,0.00106529693584889,-0.00532648479565978,-0.00532648479565978,0.210352644324303,9.79095935821533,-0.497197151184082
1743272150902839808,-0.00106529693584889,-0.00639178184792399,-0.00426118774339557,0.210352644324303,9.79095935821533,-0.497197151184082
1743272150907840000,0.00106529693584889,-0.00745707890018821,0.0,0.210352644324303,9.79095935821533,-0.497197151184082
1743272150912839936,0.00213059387169778,-0.00426118774339557,-0.00426118774339557,0.210352644324303,9.792506047815829,-0.4956504688148889
1743272150917840128,-0.00213059387169778,-0.003195890923962,-0.00532648479565978,0.210352644324303,9.79859639222095,-0.4895601528842248
1743272150922849792,0.00106529693584889,-0.00852237548679113,-0.00532648479565978,0.210352644324303,9.804698643173877,-0.48345793046142077
1743272150927849984,-0.00106529693584889,-0.00213059387169778,-0.00639178184792399,0.210352644324303,9.809375443444283,-0.478074163198471
1743272150932849920,0.00106529693584889,-0.003195890923962,-0.00532648479565978,0.210352644324303,9.803281595247231,-0.478074163198471
1743272150937850112,0.00106529693584889,-0.00745707890018821,-0.003195890923962,0.210352644324303,9.797187456465648,-0.478074163198471
1743272150942850048,-0.00106529693584889,-0.00745707890018821,-0.00106529693584889,0.210352644324303,9.791093317684066,-0.478074163198471
1743272150947849984,0.0,-0.00852237548679113,-0.00532648479565978,0.210352644324303,9.79095935821533,-0.478074163198471
1743272150952850176,0.0,-0.00426118774339557,0.0,0.210352644324303,9.79095935821533,-0.478074163198471
1743272150957860096,0.0,-0.00426118774339557,-0.003195890923962,0.210352644324303,9.79095935821533,-0.478074163198471
1743272150962860032,0.0,-0.0106529695913196,-0.00532648479565978,0.210352644324303,9.79095935821533,-0.4831901018986048
1743272150967859968,0.0,-0.00106529693584889,-0.00532648479565978,0.210352644324303,9.79095935821533,-0.4892800349451226
1743272150972860160,0.00106529693584889,-0.00639178184792399,-0.00213059387169778,0.210352644324303,9.79095935821533,-0.4953702583894778
1743272150977860096,-0.00106529693584889,-0.00426118774339557,-0.00639178184792399,0.210352644324303,9.79095935821533,-0.497197151184082
1743272150982860032,0.00213059387169778,-0.00745707890018821,-0.003195890923962,0.210352644324303,9.79095935821533,-0.497197151184082
1743272150987869952,0.00106529693584889,-0.003195890923962,0.0,0.210352644324303,9.79095935821533,-0.497197151184082
1743272150992870144,0.00213059387169778,-0.00639178184792399,-0.00745707890018821,0.210352644324303,9.787536661326204,-0.49035179474449725
1743272150997870080,0.003195890923962,0.00213059387169778,-0.00426118774339557,0.210352644324303,9.781446607324689,-0.47817175317869615
1743272151002870016,0.0,-0.00639178184792399,-0.00213059387169778,0.210352644324303,9.77535626291957,-0.465991130808853
1743272151007869952,-0.00106529693584889,-0.00639178184792399,-0.00213059387169778,0.210352644324303,9.774406313698854,-0.464091242730551
1743272151012870144,-0.003195890923962,-0.00426118774339557,-0.00639178184792399,0.210352644324303,9.780496565617234,-0.47627168012792037
1743272151017880064,0.00426118774339557,-0.00532648479565978,-0.003195890923962,0.210352644324303,9.786598723902609,-0.48847593012939483
1743272151022880000,0.00532648479565978,-0.0117182666435838,-0.00532648479565978,0.2086230098870823,9.79095935821533,-0.497197151184082
1743272151027879936,-0.00106529693584889,-0.00426118774339557,-0.00213059387169778,0.20253298910418174,9.79095935821533,-0.497197151184082
1743272151032880128,0.00106529693584889,-0.00852237548679113,-0.00106529693584889,0.19644267791926015,9.79095935821533,-0.497197151184082
1743272151037880064,0.00106529693584889,-0.00213059387169778,-0.00639178184792399,0.19210667202518714,9.79095935821533,-0.497197151184082
1743272151042880000,0.00106529693584889,-0.003195890923962,-0.00958767253905535,0.19819689072387184,9.79095935821533,-0.497197151184082
1743272151047889920,-0.00213059387169778,-0.00426118774339557,-0.003195890923962,0.20429901572460907,9.79095935821533,-0.497197151184082
1743272151052890112,0.00426118774339557,-0.0117182666435838,0.00106529693584889,0.210352644324303,9.79095935821533,-0.497197151184082
1743272151057890048,0.00106529693584889,-0.00745707890018821,-0.00106529693584889,0.210352644324303,9.79095935821533,-0.497197151184082
1743272151062889984,0.00106529693584889,-0.00852237548679113,-0.00426118774339557,0.210352644324303,9.79095935821533,-0.497197151184082
1743272151067889920,-0.00106529693584889,-0.00745707890018821,-0.00213059387169778,0.210352644324303,9.79095935821533,-0.497197151184082
1743272151072890112,-0.00106529693584889,-0.00426118774339557,-0.00532648479565978,0.210352644324303,9.79095935821533,-0.4919195796088466
1743272151077900032,0.00106529693584889,-0.00639178184792399,-0.00426118774339557,0.210352644324303,9.79095935821533,-0.485813555409396
1743272151082899968,0.00213059387169778,-0.00532648479565978,0.00106529693584889,0.210352644324303,9.79095935821533,-0.4797194451200095
1743272151087899904,0.003195890923962,-0.00745707890018821,0.0,0.210352644324303,9.79095935821533,-0.478074163198471
1743272151092900096,0.0,-0.00426118774339557,-0.00426118774339557,0.210352644324303,9.79095935821533,-0.478074163198471
1743272151097900032,-0.00106529693584889,-0.00213059387169778,-0.00213059387169778,0.210352644324303,9.79095935821533,-0.478074163198471
1743272151102899968,0.00213059387169778,-0.00852237548679113,-0.00213059387169778,0.20675950011816938,9.79095935821533,-0.48166731020448417
1743272151107909888,0.003195890923962,-0.00745707890018821,-0.00213059387169778,0.2006572824503858,9.79095935821533,-0.4877695326272881
1743272151112910080,-0.003195890923962,0.00106529693584889,-0.00745707890018821,0.1945669712654642,9.79095935821533,-0.4938598485579523
1743272151117910016,0.00213059387169778,-0.00532648479565978,-0.00426118774339557,0.19398235019488028,9.788206664245546,-0.497197151184082
1743272151122909952,-0.00106529693584889,-0.00532648479565978,-0.00426118774339557,0.20007256889356498,9.782116412327166,-0.497197151184082
1743272151127909888,0.003195890923962,-0.00532648479565978,0.00106529693584889,0.2061624971946386,9.776026450807983,-0.497197151184082
1743272151132910080,0.00106529693584889,-0.00532648479565978,-0.003195890923962,0.20845254390074103,9.773736391610596,-0.493396950336958
1743272151137920000,-0.00213059387169778,-0.00639178184792399,-0.00639178184792399,0.20235032623295746,9.779838642563524,-0.4811925150013909
1743272151142919936,0.0,0.0,-0.00213059387169778,0.19626001504803586,9.785928986968644,-0.46901189263154774
1743272151147919872,0.00213059387169778,-0.00426118774339557,-0.00213059387169778,0.1933489921794891,9.789899691552629,-0.46001086507214123
1743272151152920064,-0.00213059387169778,-0.00532648479565978,-0.00532648479565978,0.20552942483118763,9.78380943963425,-0.4661010790251554
1743272151157920000,0.0,-0.00532648479565978,-0.00106529693584889,0.2177092766878904,9.777719478115065,-0.47219100258078484
1743272151162919936,0.00106529693584889,-0.00426118774339557,-0.00106529693584889,0.22926841702863396,9.772043467593267,-0.478074163198471
1743272151167929856,0.0,-0.00213059387169778,-0.003195890923962,0.22316240234514947,9.778149520340616,-0.478074163198471
1743272151172930048,-0.00213059387169778,-0.00213059387169778,-0.00745707890018821,0.2170683015531618,9.784243659122199,-0.478074163198471
1743272151177930240,-0.00532648479565978,-0.00213059387169778,-0.00639178184792399,0.21097420076117415,9.790337797903781,-0.478074163198471
1743272151182929920,-0.00106529693584889,-0.00106529693584889,-0.003195890923962,0.210352644324303,9.79095935821533,-0.478074163198471
1743272151187930112,0.00426118774339557,-0.00852237548679113,0.003195890923962,0.210352644324303,9.79095935821533,-0.478074163198471
1743272151192930048,0.0,-0.00532648479565978,-0.003195890923962,0.210352644324303,9.79095935821533,-0.478074163198471
1743272151197929984,0.00106529693584889,-0.00852237548679113,-0.00106529693584889,0.210352644324303,9.79095935821533,-0.4826906176184078
1743272151202939904,0.0,-0.00639178184792399,-0.003195890923962,0.210352644324303,9.79095935821533,-0.4887927473740933
1743272151207940096,0.0,-0.00532648479565978,-0.00958767253905535,0.210352644324303,9.79095935821533,-0.49488297081844845
1743272151212940032,-0.003195890923962,-0.00958767253905535,-0.00426118774339557,0.210352644324303,9.79095935821533,-0.497197151184082
1743272151217939968,0.0,-0.003195890923962,-0.00852237548679113,0.210352644324303,9.79095935821533,-0.497197151184082
1743272151222939904,0.00213059387169778,-0.00745707890018821,-0.00426118774339557,0.210352644324303,9.79095935821533,-0.497197151184082
1743272151227940096,0.00106529693584889,-0.003195890923962,-0.00213059387169778,0.21327607479659896,9.788035909518863,-0.49427371615574306
1743272151232950016,0.0,-0.00852237548679113,-0.003195890923962,0.21937819504238765,9.781933751233487,-0.4881715864000576
1743272151237950208,0.00106529693584889,-0.00532648479565978,-0.00639178184792399,0.2254684089954015,9.775843499315107,-0.4820813629557024
1743272151242949888,0.00106529693584889,-0.00532648479565978,-0.00426118774339557,0.2253100775409666,9.773919055478173,-0.4801569281162053
1743272151247950080,0.00213059387169778,-0.00745707890018821,-0.00639178184792399,0.21312945991686635,9.780009399883294,-0.4862472440468694
1743272151252950016,-0.003195890923962,-0.00426118774339557,-0.00532648479565978,0.20094942309658184,9.786099453884809,-0.49233726957528623
1743272151257949952,0.00213059387169778,-0.00532648479565978,-0.003195890923962,0.19246008591782013,9.789728936825945,-0.497197151184082
1743272151262959872,0.00106529693584889,-0.00639178184792399,-0.003195890923962,0.19856221091855739,9.78362677854057,-0.497197151184082
1743272151267960064,0.00106529693584889,-0.0106529695913196,0.00213059387169778,0.2046524296172421,9.77753652662219,-0.497197151184082
1743272151272960000,-0.00106529693584889,-0.00639178184792399,-0.00106529693584889,0.2099629307302903,9.772225996542494,-0.4968074372863934
1743272151277959936,0.0,-0.00745707890018821,-0.00745707890018821,0.2038727120316056,9.778316248460873,-0.4907172138420382
1743272151282959872,0.0,-0.00426118774339557,-0.00426118774339557,0.19778278373053193,9.784406209980057,-0.48462728079552037
1743272151287960064,0.00213059387169778,-0.00532648479565978,-0.00213059387169778,0.19169256503184723,9.790496461898437,-0.4785370573511652
1743272151292969984,0.00852237548679113,-0.00745707890018821,-0.00745707890018821,0.19686898808612383,9.785320010608853,-0.4893527968910127
1743272151297970176,0.00426118774339557,-0.00426118774339557,-0.003195890923962,0.20295929927104542,9.779229666203733,-0.5015334192608558
1743272151302969856,0.003195890923962,-0.00958767253905535,-0.00426118774339557,0.20904932005394594,9.773139612202216,-0.5137134608266569
1743272151307970048,-0.00213059387169778,-0.00745707890018821,-0.00213059387169778,0.20556573010395596,9.77662322115379,-0.5115331988771228
1743272151312969984,-0.00106529693584889,-0.00426118774339557,-0.00532648479565978,0.1994758018028823,9.782713182672975,-0.5054432753214934
1743272151317969920,-0.00106529693584889,-0.003195890923962,-0.00213059387169778,0.1933855831041976,9.788803434591353,-0.4993530613684791
1743272151322979840,0.00213059387169778,-0.003195890923962,-0.003195890923962,0.191229671239853,9.79095935821533,-0.4932508750453353
1743272151327980032,0.00106529693584889,-0.00426118774339557,-0.003195890923962,0.191229671239853,9.79095935821533,-0.4871605591146712
1743272151332979968,-0.00106529693584889,-0.00532648479565978,-0.00213059387169778,0.191229671239853,9.79095935821533,-0.48107053358625435
1743272151337979904,0.003195890923962,-0.003195890923962,0.00106529693584889,0.19431765879978646,9.79095935821533,-0.4749861780447847
1743272151342979840,-0.00106529693584889,-0.00426118774339557,-0.003195890923962,0.20039595682112724,9.79095935821533,-0.4689078847598255
1743272151347980032,-0.00106529693584889,-0.003195890923962,-0.00745707890018821,0.20647454468549037,9.79095935821533,-0.4628293016320698
1743272151352989952,-0.003195890923962,-0.00532648479565978,-0.00213059387169778,0.210352644324303,9.79095935821533,-0.46338448226813894
1743272151357990144,0.0,-0.00745707890018821,-0.00532648479565978,0.210352644324303,9.79095935821533,-0.4755651046379821
1743272151363020032,-0.00213059387169778,-0.00106529693584889,0.003195890923962,0.210352644324303,9.79095935821533,-0.48781832751308124
1743272151368019968,0.003195890923962,-0.00639178184792399,0.00106529693584889,0.210352644324303,9.789558472498458,-0.49579627201683185
1743272151373019904,-0.00213059387169778,-0.00426118774339557,-0.00213059387169778,0.210352644324303,9.783468510979272,-0.489706338970314
1743272151378030080,0.00213059387169778,-0.00532648479565978,-0.003195890923962,0.210352644324303,9.777366062294702,-0.4836039188167912
1743272151383030016,0.00106529693584889,-0.00426118774339557,-0.00639178184792399,0.210352644324303,9.772396469376893,-0.478074163198471
1743272151388029952,-0.003195890923962,-0.00106529693584889,-0.00639178184792399,0.210352644324303,9.778486813782013,-0.478074163198471
1743272151393029888,-0.00213059387169778,0.00106529693584889,-0.00213059387169778,0.210352644324303,9.784576867783528,-0.478074163198471
1743272151398030080,-0.00213059387169778,-0.00213059387169778,-0.00213059387169778,0.210352644324303,9.79066721218865,-0.478074163198471
1743272151403030016,-0.00106529693584889,-0.00745707890018821,-0.00532648479565978,0.210352644324303,9.785161538286356,-0.4896697398072103
1743272151408039936,0.00213059387169778,-0.00852237548679113,-0.00426118774339557,0.210352644324303,9.779059089601786,-0.5018745706039068
1743272151413039872,0.00106529693584889,-0.00426118774339557,-0.00426118774339557,0.210352644324303,9.772969128082602,-0.5140544272060541
1743272151418040064,0.00213059387169778,-0.00532648479565978,-0.00426118774339557,0.20539526670627675,9.781751090139807,-0.5064053541313186
1743272151423040000,-0.00213059387169778,-0.00426118774339557,-0.00532648479565978,0.1993053384052031,9.793931013178174,-0.4942254975291712
1743272151428039936,0.0,-0.00426118774339557,-0.003195890923962,0.19321511970651842,9.806111517014934,-0.4820450601318019
1743272151433039872,0.00106529693584889,-0.00532648479565978,-0.00426118774339557,0.1953368330070487,9.797760883097576,-0.4821813281660832
1743272151438050048,0.00106529693584889,-0.003195890923962,0.00213059387169778,0.20144323582124507,9.779441574731074,-0.4882877357385612
1743272151443049984,-0.00106529693584889,-0.00213059387169778,0.0,0.20753714337889764,9.76115975233867,-0.4943816480447587
1743272151448049920,0.00426118774339557,-0.00426118774339557,-0.00639178184792399,0.210352644324303,9.762542925783087,-0.4939205923855573
1743272151453049856,-0.00106529693584889,-0.00106529693584889,-0.00426118774339557,0.210352644324303,9.780812810340636,-0.48783065933903946
1743272151458050048,-0.00106529693584889,-0.00852237548679113,-0.00852237548679113,0.210352644324303,9.79908356609577,-0.48174043589468424
1743272151463049984,0.00106529693584889,-0.00532648479565978,-0.003195890923962,0.210352644324303,9.807658727120158,-0.48049786035455166
1743272151468059904,0.00213059387169778,-0.00426118774339557,-0.00106529693584889,0.210352644324303,9.801556185763625,-0.486600373179603
1743272151473059840,-0.00106529693584889,-0.00426118774339557,-0.00426118774339557,0.210352644324303,9.79546613176211,-0.4926903987080198
1743272151478060032,0.0,-0.003195890923962,-0.003195890923962,0.210352644324303,9.79095935821533,-0.49561462112041
1743272151483059968,-0.00106529693584889,-0.00532648479565978,0.0,0.210352644324303,9.79095935821533,-0.4895285697788981
1743272151488059904,0.00106529693584889,-0.00745707890018821,-0.00426118774339557,0.210352644324303,9.79095935821533,-0.4834422282246475
1743272151493060096,-0.00106529693584889,-0.00426118774339557,-0.00639178184792399,0.20963389932226786,9.79167810713783,-0.478074163198471
1743272151498070016,0.0,-0.003195890923962,-0.00639178184792399,0.2035316816544843,9.797780358090758,-0.478074163198471
1743272151503070208,-0.00426118774339557,-0.00426118774339557,-0.003195890923962,0.19744137046956273,9.803870702495878,-0.478074163198471
1743272151508069888,-0.00213059387169778,-0.00213059387169778,0.0,0.19135134968666218,9.809960756497395,-0.478074163198471
1743272151513070080,0.00106529693584889,-0.00639178184792399,-0.00213059387169778,0.19719821333951285,9.798145286296595,-0.4840427099489875
1743272151518070016,0.00532648479565978,-0.00745707890018821,-0.00106529693584889,0.2032881416405865,9.785965363258228,-0.49013264299550535
1743272151523070208,0.003195890923962,-0.00745707890018821,-0.00213059387169778,0.2093783603392712,9.773784859421468,-0.4962228664398606
1743272151528079872,-0.00106529693584889,-0.00852237548679113,-0.00106529693584889,0.210352644324303,9.782092018794783,-0.49206930617261796
1743272151533080064,-0.00213059387169778,-0.00639178184792399,-0.00532648479565978,0.210352644324303,9.794272522631541,-0.48597908272826273
1743272151538080000,0.00106529693584889,-0.00426118774339557,-0.00532648479565978,0.210352644324303,9.80645244566991,-0.4798891496817449
1743272151543080192,0.0,-0.00745707890018821,-0.00639178184792399,0.2060773457707833,9.801531791860802,-0.47379886797638476
1743272151548079872,0.00106529693584889,-0.00532648479565978,-0.003195890923962,0.19998732498788274,9.78935168385777,-0.46770885193900047
1743272151553080064,-0.003195890923962,-0.00639178184792399,-0.00532648479565978,0.19389701380296118,9.777170995047529,-0.46161854549982145
1743272151558089984,0.0,-0.00958767253905535,-0.00106529693584889,0.19466449418320805,9.778705964180617,-0.462386025282026
1743272151563090176,0.00213059387169778,-0.00532648479565978,-0.00639178184792399,0.20075471288189276,9.790886468017375,-0.46847623923504017
1743272151568089856,0.00426118774339557,-0.00958767253905535,-0.003195890923962,0.20684464118296642,9.803066391055744,-0.4745661627906696
1743272151573090048,-0.00213059387169778,-0.00532648479565978,-0.00639178184792399,0.210352644324303,9.807500166751801,-0.4806564199815849
1743272151578089984,0.00426118774339557,-0.00745707890018821,-0.00426118774339557,0.210352644324303,9.801410112750284,-0.4867464455100018
1743272151583090176,0.00106529693584889,-0.00106529693584889,0.00106529693584889,0.210352644324303,9.795319768345164,-0.4928367614406659
1743272151588089856,-0.00106529693584889,0.003195890923962,0.00106529693584889,0.20862303615296188,9.792688975820989,-0.497197151184082
1743272151593100032,0.00213059387169778,-0.00532648479565978,-0.00639178184792399,0.2025206207546136,9.79879142450556,-0.497197151184082
1743272151598099968,-0.00213059387169778,-0.00213059387169778,0.0,0.19643069245353995,9.804881386024743,-0.497197151184082
1743272151603100160,0.0,-0.00426118774339557,-0.00426118774339557,0.1921188822282294,9.809193219769245,-0.497197151184082
1743272151608099840,-0.00106529693584889,-0.00532648479565978,-0.00532648479565978,0.19820890301112995,9.80310316576773,-0.497197151184082
1743272151613100032,0.00106529693584889,-0.00745707890018821,-0.00639178184792399,0.20429921419605152,9.797012821362609,-0.497197151184082
1743272151618099968,0.003195890923962,-0.00532648479565978,-0.00106529693584889,0.210352644324303,9.79095935821533,-0.4971605610565792
1743272151623110144,0.0,-0.00639178184792399,-0.00106529693584889,0.210352644324303,9.79095935821533,-0.4910581409030564
1743272151628109824,0.00213059387169778,-0.00745707890018821,-0.00106529693584889,0.210352644324303,9.79095935821533,-0.48496820785653855
1743272151633110016,0.00426118774339557,-0.00426118774339557,-0.00213059387169778,0.210352644324303,9.79095935821533,-0.4788779844121834
1743272151638109952,0.00106529693584889,-0.00532648479565978,-0.00852237548679113,0.210352644324303,9.79095935821533,-0.478074163198471
1743272151643110144,-0.00213059387169778,-0.00426118774339557,-0.00426118774339557,0.210352644324303,9.79095935821533,-0.478074163198471
1743272151648109824,0.00213059387169778,-0.003195890923962,0.0,0.210352644324303,9.79095935821533,-0.478074163198471
1743272151653120000,0.003195890923962,-0.00426118774339557,-0.00213059387169778,0.210352644324303,9.79095935821533,-0.48250773430821015
1743272151658119936,0.0,-0.00426118774339557,-0.00213059387169778,0.210352644324303,9.79095935821533,-0.48859775983662695
1743272151663120128,0.00106529693584889,-0.00852237548679113,-0.00426118774339557,0.210352644324303,9.79095935821533,-0.4946880757672911
1743272151668119808,0.00213059387169778,-0.00852237548679113,-0.00213059387169778,0.210352644324303,9.79095935821533,-0.497197151184082
1743272151673120000,-0.00106529693584889,-0.00532648479565978,-0.00106529693584889,0.210352644324303,9.79095935821533,-0.497197151184082
1743272151678119936,-0.00106529693584889,-0.00532648479565978,0.0,0.210352644324303,9.79095935821533,-0.497197151184082
1743272151683130112,0.003195890923962,-0.003195890923962,0.00106529693584889,0.210352644324303,9.79095935821533,-0.497197151184082
1743272151688129792,0.0,-0.00639178184792399,-0.00639178184792399,0.210352644324303,9.79095935821533,-0.497197151184082
1743272151693129984,0.00213059387169778,-0.00958767253905535,-0.003195890923962,0.210352644324303,9.79095935821533,-0.497197151184082
1743272151698129920,-0.003195890923962,-0.00852237548679113,-0.00532648479565978,0.210352644324303,9.792846040049959,-0.49531047817034063
1743272151703130112,-0.00106529693584889,-0.00852237548679113,-0.00958767253905535,0.210352644324303,9.798932410060084,-0.4892241366160901
1743272151708129792,0.0,-0.00213059387169778,-0.00426118774339557,0.210352644324303,9.805018489856113,-0.48313808527457813
1743272151713139968,0.00213059387169778,-0.00639178184792399,-0.00213059387169778,0.210352644324303,9.8080118579039,-0.47910944721014453
1743272151718139904,-0.00213059387169778,-0.012783563695848,-0.00532648479565978,0.210352644324303,9.795831749900868,-0.4851994727385614
1743272151723140096,0.00213059387169778,-0.00852237548679113,0.0,0.210352644324303,9.783651061090628,-0.4912897886692255
1743272151728140032,0.003195890923962,-0.00639178184792399,-0.00639178184792399,0.210352644324303,9.772019232315625,-0.497014200546568
1743272151733139968,0.00532648479565978,-0.00852237548679113,-0.00106529693584889,0.210352644324303,9.77810919383481,-0.49092426750005014
1743272151738140160,-0.00106529693584889,-0.00426118774339557,-0.00426118774339557,0.210352644324303,9.784199445753188,-0.4848340440556949
1743272151743150080,-0.00106529693584889,-0.00426118774339557,-0.003195890923962,0.210352644324303,9.790301604038564,-0.4787319143000095
1743272151748150016,0.00532648479565978,-0.00426118774339557,-0.00106529693584889,0.210352644324303,9.79095935821533,-0.48350663554128775
1743272151753149952,0.00213059387169778,-0.003195890923962,-0.00639178184792399,0.210352644324303,9.79095935821533,-0.4895965685878056
1743272151758150144,0.0,-0.00213059387169778,-0.00213059387169778,0.210352644324303,9.79095935821533,-0.49568679203216076
1743272151763150080,0.0,-0.00106529693584889,-0.00639178184792399,0.210352644324303,9.79095935821533,-0.49262042683919816
1743272151768150016,-0.00213059387169778,-0.003195890923962,-0.00532648479565978,0.210352644324303,9.79095935821533,-0.48653399291650296
1743272151773159936,0.00106529693584889,-0.003195890923962,-0.00426118774339557,0.210352644324303,9.79095935821533,-0.4804356600909453
1743272151778160128,-0.00106529693584889,-0.00852237548679113,-0.00106529693584889,0.210352644324303,9.787232084546991,-0.478074163198471
1743272151783160064,-0.00213059387169778,-0.00745707890018821,-0.00213059387169778,0.210352644324303,9.781142123027808,-0.478074163198471
1743272151788160000,-0.003195890923962,-0.00213059387169778,-0.00106529693584889,0.210352644324303,9.775051871109428,-0.478074163198471
1743272151793159936,0.00213059387169778,0.0,-0.00106529693584889,0.210352644324303,9.77471069570554,-0.478074163198471
1743272151798160128,0.00106529693584889,-0.003195890923962,0.0,0.210352644324303,9.780801040110662,-0.478074163198471
1743272151803170048,0.0,-0.00106529693584889,-0.00426118774339557,0.210352644324303,9.78690329106359,-0.478074163198471
1743272151808169984,-0.00106529693584889,-0.003195890923962,-0.00213059387169778,0.20831970567442257,9.79095935821533,-0.4801071034324747
1743272151813169920,-0.003195890923962,-0.00639178184792399,-0.00426118774339557,0.20223365907533006,9.79095935821533,-0.48619315477398667
1743272151818170112,0.00106529693584889,-0.00213059387169778,-0.00213059387169778,0.1961473222637251,9.79095935821533,-0.49227949632823725
1743272151823170048,0.00106529693584889,-0.003195890923962,-0.00639178184792399,0.1923988297764968,9.789790193301396,-0.4960279917363968
1743272151828169984,0.0,-0.003195890923962,-0.003195890923962,0.1984891409614184,9.783699848896276,-0.48993767580573266
1743272151833179904,-0.00213059387169778,-0.00745707890018821,-0.003195890923962,0.20459135862920197,9.777597597943348,-0.48383545338292866
1743272151838180096,-0.00213059387169778,-0.00745707890018821,-0.003195890923962,0.210352644324303,9.772164465840484,-0.478074163198471
1743272151843180032,-0.003195890923962,-0.00532648479565978,-0.00213059387169778,0.210352644324303,9.77823893010077,-0.478074163198471
1743272151848179968,0.0,-0.00958767253905535,-0.00745707890018821,0.210352644324303,9.784313684021265,-0.478074163198471
1743272151853179904,-0.00106529693584889,-0.00745707890018821,-0.00958767253905535,0.210352644324303,9.79038814828155,-0.478074163198471
1743272151858180096,-0.003195890923962,-0.00639178184792399,-0.00639178184792399,0.210352644324303,9.79095935821533,-0.478074163198471
1743272151863219968,-0.00213059387169778,-0.00532648479565978,-0.00106529693584889,0.210352644324303,9.79095935821533,-0.478074163198471
1743272151868230144,0.00426118774339557,-0.0106529695913196,-0.003195890923962,0.210352644324303,9.79095935821533,-0.478074163198471
1743272151873230080,0.003195890923962,-0.00639178184792399,0.00106529693584889,0.210352644324303,9.79095935821533,-0.478074163198471
1743272151878230016,0.0,-0.00639178184792399,-0.00213059387169778,0.210352644324303,9.79095935821533,-0.478074163198471
1743272151883229952,0.00213059387169778,-0.00532648479565978,-0.00532648479565978,0.210352644324303,9.79095935821533,-0.478074163198471
1743272151888230144,0.00213059387169778,-0.00639178184792399,-0.00426118774339557,0.210352644324303,9.787085954931166,-0.478074163198471
1743272151893230080,0.003195890923962,-0.0106529695913196,-0.00213059387169778,0.210352644324303,9.78099590092965,-0.478074163198471
1743272151898240000,-0.00213059387169778,-0.003195890923962,-0.00532648479565978,0.210352644324303,9.774893359573118,-0.478074163198471
1743272151903239936,0.003195890923962,-0.00639178184792399,-0.00745707890018821,0.210352644324303,9.774869210015748,-0.478074163198471
1743272151908240128,0.00106529693584889,-0.00852237548679113,-0.00426118774339557,0.210352644324303,9.780959461934128,-0.478074163198471
1743272151913240064,0.00106529693584889,-0.00639178184792399,-0.00213059387169778,0.210352644324303,9.787049423453311,-0.478074163198471
1743272151918240000,-0.00213059387169778,-0.00426118774339557,-0.00745707890018821,0.210352644324303,9.79095935821533,-0.4802545032713027
1743272151923239936,-0.00213059387169778,-0.00532648479565978,0.0,0.210352644324303,9.79095935821533,-0.4863445287997195
1743272151928250112,0.0,-0.00639178184792399,-0.00532648479565978,0.210352644324303,9.79095935821533,-0.4924470416247708
1743272151933250048,0.00532648479565978,-0.00426118774339557,-0.00213059387169778,0.20901274974697462,9.79095935821533,-0.497197151184082
1743272151938249984,0.00213059387169778,-0.00958767253905535,-0.003195890923962,0.20292253104828992,9.79095935821533,-0.497197151184082
1743272151943249920,0.003195890923962,-0.00426118774339557,0.0,0.19683260274721626,9.79095935821533,-0.497197151184082
1743272151948250112,0.0,-0.00639178184792399,-0.00213059387169778,0.19171695843117442,9.79095935821533,-0.4967098636130526
1743272151953250048,0.00213059387169778,-0.00532648479565978,-0.00532648479565978,0.19780688673224808,9.79095935821533,-0.49061993056653475
1743272151958259968,0.0,-0.003195890923962,-0.00213059387169778,0.20390930213059635,9.79095935821533,-0.48451751041301194
1743272151963259904,0.00106529693584889,0.00106529693584889,-0.00213059387169778,0.20999923043167001,9.79095935821533,-0.4784275773664941
1743272151968260096,0.00213059387169778,-0.00639178184792399,-0.00426118774339557,0.210352644324303,9.79095935821533,-0.478074163198471
1743272151973260032,0.00532648479565978,-0.00852237548679113,-0.003195890923962,0.210352644324303,9.79095935821533,-0.478074163198471
1743272151978259968,-0.003195890923962,-0.00639178184792399,-0.00745707890018821,0.210352644324303,9.79095935821533,-0.478074163198471
1743272151983259904,0.0,-0.00639178184792399,-0.003195890923962,0.210352644324303,9.79095935821533,-0.48295836442442036
1743272151988270080,0.0,-0.003195890923962,-0.003195890923962,0.210352644324303,9.79095935821533,-0.48906078457794316
1743272151993270016,0.0,-0.003195890923962,-0.00852237548679113,0.210352644324303,9.79095935821533,-0.495150717624461
1743272151998269952,0.00213059387169778,-0.00852237548679113,-0.003195890923962,0.2143964893159854,9.79095935821533,-0.5012409961757646
1743272152003269888,-0.003195890923962,-0.00426118774339557,-0.00213059387169778,0.22048650535336933,9.79095935821533,-0.5073310122131489
1743272152008270080,0.00106529693584889,-0.00426118774339557,0.0,0.22657681179254802,9.79095935821533,-0.5134213186523279
1743272152013270016,0.00213059387169778,-0.00745707890018821,-0.00639178184792399,0.22309324629885957,9.79095935821533,-0.5099377506719823
1743272152018279936,0.0,-0.00213059387169778,-0.00426118774339557,0.21088842025733787,9.79095935821533,-0.4977329198752858
1743272152023279872,-0.003195890923962,-0.00745707890018821,-0.00852237548679113,0.19870856840063508,9.79095935821533,-0.48555306327313846
1743272152028280064,-0.00213059387169778,0.0,-0.003195890923962,0.19358047560004468,9.79095935821533,-0.4804249693904759
1743272152033280000,0.00213059387169778,-0.00639178184792399,-0.00213059387169778,0.19967049638294523,9.79095935821533,-0.4865149949188927
1743272152038279936,-0.00106529693584889,-0.00106529693584889,-0.00639178184792399,0.2057608075678668,9.79095935821533,-0.49260531084955683
1743272152043279872,0.0,-0.00532648479565978,-0.00106529693584889,0.210352644324303,9.79095935821533,-0.497197151184082
1743272152048290048,0.0,-0.00106529693584889,-0.003195890923962,0.210352644324303,9.79095935821533,-0.497197151184082
1743272152053289984,0.00532648479565978,-0.00745707890018821,-0.00639178184792399,0.210352644324303,9.79095935821533,-0.497197151184082
1743272152058289920,0.0,-0.003195890923962,-0.00426118774339557,0.210352644324303,9.791617112392096,-0.49653940008254355
1743272152063290112,0.0,-0.00745707890018821,-0.003195890923962,0.210352644324303,9.797707364310474,-0.4904491766381883
1743272152068290048,0.00213059387169778,-0.00213059387169778,-0.00213059387169778,0.210352644324303,9.80379732582966,-0.4843592435916705
1743272152073289984,0.003195890923962,-0.00532648479565978,-0.003195890923962,0.210352644324303,9.809887577748038,-0.4782690201473153
1743272152078299904,0.0,-0.00426118774339557,-0.00532648479565978,0.20444528641262674,9.804175045473972,-0.47216680988997495
1743272152083300096,0.00426118774339557,-0.0106529695913196,-0.00639178184792399,0.19835497522770515,9.79808470106885,-0.46607650345079593
1743272152088300032,0.00106529693584889,-0.00532648479565978,-0.00106529693584889,0.19226495444480463,9.791994647067336,-0.4599864874134117
1743272152093300224,0.00426118774339557,-0.00532648479565978,-0.00426118774339557,0.19628462245518793,9.79095935821533,-0.4640061522915561
1743272152098299904,-0.00213059387169778,-0.00106529693584889,-0.00745707890018821,0.2023745507562616,9.79095935821533,-0.47009607584718555
1743272152103300096,0.00106529693584889,-0.003195890923962,-0.00426118774339557,0.2084647694549463,9.79095935821533,-0.4761862898001997
1743272152108310016,0.0,-0.00213059387169778,-0.00852237548679113,0.210352644324303,9.79095935821533,-0.4822911702743157
1743272152113310208,0.003195890923962,-0.00213059387169778,0.00213059387169778,0.210352644324303,9.79095935821533,-0.48838537316810116
1743272152118309888,0.0,-0.00532648479565978,-0.00213059387169778,0.210352644324303,9.79095935821533,-0.4944792854742987
1743272152123310080,0.00106529693584889,-0.00532648479565978,-0.00639178184792399,0.20697851448165483,9.7943335064625,-0.4938230187122165
1743272152128310016,0.00106529693584889,-0.00426118774339557,-0.00106529693584889,0.20088858618058117,9.800423467981684,-0.4877330856656986
1743272152133309952,-0.00213059387169778,0.00106529693584889,-0.003195890923962,0.1947983674818965,9.806513719900064,-0.48164286222134345
1743272152138309888,0.00106529693584889,-0.003195890923962,-0.00532648479565978,0.19375090329888314,9.807561189796573,-0.4805953972221164
1743272152143320064,0.0,-0.00639178184792399,-0.00426118774339557,0.19985331869723144,9.801458741112002,-0.4866978173756392
1743272152148320000,0.00213059387169778,-0.00639178184792399,-0.003195890923962,0.20594324699830507,9.795368779592819,-0.49278775042215706
1743272152153320192,0.00213059387169778,-0.00532648479565978,0.0,0.20867179742661437,9.792640214281363,-0.49551630297662996
1743272152158319872,-0.00213059387169778,-0.00426118774339557,-0.00426118774339557,0.20258177664371382,9.798730268282878,-0.4894262774482131
1743272152163320064,-0.00106529693584889,-0.00958767253905535,0.00106529693584889,0.19649146545879223,9.804820612688,-0.483335961517549
1743272152168320000,0.00213059387169778,-0.0106529695913196,-0.00532648479565978,0.19205788522653278,9.809254217103655,-0.47890237783051853
1743272152173330176,0.00426118774339557,-0.00745707890018821,-0.00106529693584889,0.19816030062488107,9.803151768419085,-0.48500479798404134
1743272152178329856,-0.00106529693584889,-0.003195890923962,-0.00106529693584889,0.20425022892595474,9.797061806899901,-0.4910947310305592
1743272152183330048,0.00106529693584889,-0.00852237548679113,-0.00639178184792399,0.2103404476246394,9.790971554981521,-0.4971849544749144
1743272152188329984,-0.00639178184792399,-0.00639178184792399,-0.00426118774339557,0.210352644324303,9.79095935821533,-0.49111932255005236
1743272152193330176,0.003195890923962,-0.00639178184792399,0.0,0.210352644324303,9.79095935821533,-0.4850290066193882
1743272152198329856,-0.00213059387169778,0.0,-0.00745707890018821,0.210352644324303,9.79095935821533,-0.4789389810909714
1743272152203340032,0.00106529693584889,-0.00639178184792399,-0.00106529693584889,0.2051150330116253,9.79095935821533,-0.478074163198471
1743272152208339968,0.00106529693584889,-0.00745707890018821,-0.00426118774339557,0.19902510471055163,9.79095935821533,-0.478074163198471
1743272152213340160,0.00106529693584889,-0.0106529695913196,-0.00426118774339557,0.19293488601186692,9.79095935821533,-0.478074163198471
1743272152218339840,0.003195890923962,-0.00426118774339557,-0.00532648479565978,0.191229671239853,9.79095935821533,-0.478074163198471
1743272152223340032,0.003195890923962,-0.00745707890018821,0.00106529693584889,0.191229671239853,9.79095935821533,-0.478074163198471
1743272152228339968,-0.00106529693584889,-0.003195890923962,-0.00639178184792399,0.191229671239853,9.79095935821533,-0.478074163198471
1743272152233350144,-0.00426118774339557,-0.00213059387169778,-0.00426118774339557,0.191229671239853,9.79450397078999,-0.47452957272019086
1743272152238349824,-0.00213059387169778,-0.00532648479565978,-0.00532648479565978,0.191229671239853,9.800593932309173,-0.46843964916456143
1743272152243350016,0.00106529693584889,-0.003195890923962,-0.00213059387169778,0.191229671239853,9.806684184227551,-0.46234943521154725
1743272152248349952,0.0,-0.00106529693584889,-0.00745707890018821,0.19392136669656235,9.80469901533026,-0.46433459592860066
1743272152253350144,-0.00213059387169778,-0.00745707890018821,-0.00426118774339557,0.20001158539524702,9.7925185114935,-0.47651503332597006
1743272152258349824,0.00213059387169778,-0.00639178184792399,-0.00745707890018821,0.20610151369632068,9.780338588455132,-0.4886948899281173
1743272152263360000,0.003195890923962,-0.003195890923962,-0.003195890923962,0.210352644324303,9.773687603804948,-0.49534583685745676
1743272152268359936,0.00106529693584889,-0.00639178184792399,-0.00213059387169778,0.210352644324303,9.779777657806463,-0.48925581132903995
1743272152273360128,0.00213059387169778,-0.00426118774339557,-0.00745707890018821,0.210352644324303,9.785868002211584,-0.48316549539837583
1743272152278359808,-0.00106529693584889,-0.00745707890018821,-0.00213059387169778,0.2093546034939049,9.79195740448964,-0.478074163198471
1743272152283360000,0.00426118774339557,-0.00639178184792399,-0.00852237548679113,0.20326826668229991,9.798043774499765,-0.478074163198471
1743272152288360192,0.00426118774339557,-0.00532648479565978,-0.00532648479565978,0.19718192987069497,9.804130144509891,-0.478074163198471
1743272152293370112,0.00426118774339557,-0.00532648479565978,-0.003195890923962,0.19152181555917983,9.81008243560791,-0.47822023552886983
1743272152298369792,0.003195890923962,-0.00532648479565978,-0.00426118774339557,0.2037018523794643,9.81008243560791,-0.48431026105728664
1743272152303369984,0.0,-0.00426118774339557,-0.00745707890018821,0.21588247000356456,9.81008243560791,-0.4904005769879508
1743272152308370176,-0.003195890923962,-0.00852237548679113,-0.00426118774339557,0.2280630876276648,9.81008243560791,-0.4964908929186149
1743272152313370112,0.0,-0.0106529695913196,-0.00106529693584889,0.21870824408064843,9.804698724931063,-0.497197151184082
1743272152318370048,0.00106529693584889,-0.00532648479565978,0.0,0.20652781142894988,9.798608473012685,-0.497197151184082
1743272152323379968,0.0,-0.00106529693584889,-0.00213059387169778,0.19432356618242394,9.792506314727309,-0.497197151184082
1743272152328380160,0.00106529693584889,-0.00213059387169778,-0.00426118774339557,0.191229671239853,9.79095935821533,-0.49265380802485825
1743272152333380096,0.0,-0.00852237548679113,-0.00213059387169778,0.191229671239853,9.79095935821533,-0.4865637824964414
1743272152338380032,0.00213059387169778,-0.00745707890018821,-0.00426118774339557,0.191229671239853,9.79095935821533,-0.4804734665657773
1743272152343379968,-0.00106529693584889,-0.00639178184792399,-0.00426118774339557,0.191229671239853,9.79095935821533,-0.48176247689353924
1743272152348380160,0.0,-0.00426118774339557,-0.00639178184792399,0.191229671239853,9.79095935821533,-0.4878488184477898
1743272152353390080,0.00213059387169778,-0.00106529693584889,0.0,0.191229671239853,9.79095935821533,-0.49394705872432365
1743272152358390016,0.003195890923962,-0.00852237548679113,-0.00213059387169778,0.19406777019132346,9.79095935821533,-0.4943590500210846
1743272152363399936,0.00106529693584889,-0.00639178184792399,-0.003195890923962,0.20016998785910703,9.79095935821533,-0.4882568275982806
1743272152368400128,0.00213059387169778,-0.00852237548679113,-0.00213059387169778,0.2062602990440286,9.79095935821533,-0.4821665116676165
1743272152373400064,0.00106529693584889,-0.0117182666435838,-0.00106529693584889,0.210352644324303,9.79095935821533,-0.478074163198471
1743272152378409984,-0.00106529693584889,-0.0106529695913196,-0.00106529693584889,0.210352644324303,9.79095935821533,-0.478074163198471
1743272152383409920,0.00106529693584889,-0.00532648479565978,-0.00426118774339557,0.210352644324303,9.79095935821533,-0.478074163198471
1743272152388410112,0.00106529693584889,-0.00639178184792399,-0.00532648479565978,0.210352644324303,9.79095935821533,-0.47921920187103884
1743272152393410048,0.00213059387169778,-0.0106529695913196,-0.003195890923962,0.210352644324303,9.79095935821533,-0.4853091349175567
1743272152398409984,-0.00106529693584889,-0.003195890923962,-0.00106529693584889,0.210352644324303,9.79095935821533,-0.4913993583619119
1743272152403409920,0.0,-0.00213059387169778,-0.00213059387169778,0.210352644324303,9.79095935821533,-0.49690500652328434
1743272152408420096,0.0,-0.00639178184792399,-0.00745707890018821,0.210352644324303,9.79095935821533,-0.49080249369823303
1743272152413420032,-0.00106529693584889,-0.00213059387169778,-0.00532648479565978,0.210352644324303,9.79095935821533,-0.4847124681698162
1743272152418419968,0.00213059387169778,-0.00639178184792399,-0.00426118774339557,0.210352644324303,9.79095935821533,-0.47862215223915205
1743272152423419904,0.00213059387169778,-0.00532648479565978,-0.00426118774339557,0.20481069631525767,9.79095935821533,-0.48361611552595885
1743272152428420096,-0.00426118774339557,-0.00426118774339557,-0.00532648479565978,0.198720477616573,9.79095935821533,-0.489706338970314
1743272152433420032,0.00213059387169778,-0.00532648479565978,-0.003195890923962,0.19263054931549933,9.79095935821533,-0.49579627201683185
1743272152438429952,-0.00213059387169778,-0.00639178184792399,-0.003195890923962,0.191229671239853,9.79095935821533,-0.497197151184082
1743272152443429888,0.00426118774339557,-0.00852237548679113,-0.00426118774339557,0.191229671239853,9.79095935821533,-0.497197151184082
1743272152448430080,0.00213059387169778,-0.00639178184792399,0.00213059387169778,0.191229671239853,9.79095935821533,-0.497197151184082
1743272152453430016,0.0,-0.00745707890018821,-0.00426118774339557,0.191229671239853,9.79095935821533,-0.4895236847100192
1743272152458429952,0.00213059387169778,-0.00426118774339557,-0.00532648479565978,0.191229671239853,9.79095935821533,-0.4773432473126499
1743272152463429888,-0.00426118774339557,-0.003195890923962,-0.00532648479565978,0.191229671239853,9.79095935821533,-0.46516339071050256
1743272152468440064,0.00213059387169778,-0.00426118774339557,-0.00639178184792399,0.1942260392927817,9.79095935821533,-0.4649439411210394
1743272152473440000,0.00426118774339557,-0.00426118774339557,0.00106529693584889,0.20031606007568226,9.79095935821533,-0.4771239826868405
1743272152478439936,-0.00106529693584889,-0.00426118774339557,-0.00213059387169778,0.20640637126060382,9.79095935821533,-0.4893046050566836
1743272152483439872,-0.003195890923962,-0.00426118774339557,0.0,0.210352644324303,9.788815631357545,-0.49505343434895754
1743272152488440064,-0.00106529693584889,-0.00426118774339557,-0.00213059387169778,0.210352644324303,9.782725379439166,-0.4889632109046023
1743272152493440000,0.0,-0.00532648479565978,-0.003195890923962,0.210352644324303,9.776635417919982,-0.4828732778580845
1743272152498449920,0.0,-0.0117182666435838,-0.00213059387169778,0.210352644324303,9.773139612202216,-0.478074163198471
1743272152503449856,0.0,-0.00426118774339557,-0.003195890923962,0.210352644324303,9.779229666203733,-0.478074163198471
1743272152508450048,0.003195890923962,-0.003195890923962,0.00106529693584889,0.210352644324303,9.785320010608853,-0.478074163198471
1743272152513449984,0.00106529693584889,-0.00639178184792399,-0.00532648479565978,0.210352644324303,9.791410057766033,-0.478074163198471
1743272152518449920,0.00426118774339557,-0.00532648479565978,0.00213059387169778,0.210352644324303,9.79750030968441,-0.478074163198471
1743272152523449856,0.003195890923962,-0.00426118774339557,-0.00213059387169778,0.210352644324303,9.803590271203596,-0.478074163198471
1743272152528460032,-0.00213059387169778,-0.00639178184792399,-0.00213059387169778,0.210352644324303,9.809692719888167,-0.478074163198471
1743272152533459968,-0.00106529693584889,-0.00639178184792399,-0.00532648479565978,0.210352644324303,9.80438218980847,-0.4837743823473003
1743272152538459904,0.003195890923962,-0.00958767253905535,0.00106529693584889,0.210352644324303,9.79829193789009,-0.48986460579165547
1743272152543459840,0.00213059387169778,-0.00639178184792399,0.0,0.210352644324303,9.792201976370906,-0.49595453883817336
1743272152548460032,0.00106529693584889,-0.00745707890018821,0.0,0.210352644324303,9.79580706559444,-0.4923494664696734
1743272152553459968,-0.00106529693584889,-0.00852237548679113,-0.00639178184792399,0.210352644324303,9.801897119595955,-0.4862594409412566
1743272152558469888,0.00426118774339557,-0.00745707890018821,-0.00106529693584889,0.210352644324303,9.807999660952488,-0.4801569281162053
1743272152563469824,-0.00426118774339557,-0.003195890923962,-0.00639178184792399,0.210352644324303,9.806077771304567,-0.478074163198471
1743272152568470016,0.00213059387169778,-0.00426118774339557,-0.003195890923962,0.210352644324303,9.799991401294442,-0.478074163198471
1743272152573470208,-0.003195890923962,-0.00213059387169778,-0.00426118774339557,0.210352644324303,9.793905031284316,-0.478074163198471
1743272152578469888,-0.00106529693584889,-0.00852237548679113,-0.00532648479565978,0.210352644324303,9.79095935821533,-0.47493172537764533
1743272152583470080,0.00106529693584889,-0.00426118774339557,0.0,0.210352644324303,9.79095935821533,-0.4688414189384663
1743272152588470016,-0.00426118774339557,-0.00639178184792399,-0.00532648479565978,0.210352644324303,9.79095935821533,-0.4627514029010821
1743272152593480192,0.00106529693584889,-0.00852237548679113,-0.00426118774339557,0.20805037206399535,9.793261643033608,-0.46125347548149404
1743272152598479872,0.0,-0.00958767253905535,-0.003195890923962,0.2019604437629217,9.799351604552792,-0.46734339903712346
1743272152603480064,-0.00213059387169778,-0.00213059387169778,-0.00639178184792399,0.19587022506423699,9.805441856471171,-0.4734336129901377
1743272152608480000,0.00213059387169778,-0.00532648479565978,-0.00639178184792399,0.19267906772678525,9.808633031215102,-0.4766247678409494
1743272152613480192,0.00106529693584889,-0.00745707890018821,-0.00639178184792399,0.19876937891170685,9.802542686809982,-0.47053446140177047
1743272152618489856,0.00639178184792399,-0.00745707890018821,-0.003195890923962,0.20487159657949042,9.796440435857054,-0.4644322484890073
1743272152623490048,0.00426118774339557,-0.003195890923962,0.0,0.2146174217410117,9.76476143715338,-0.45590493455014364
1743272152628489984,0.00213059387169778,-0.00639178184792399,-0.00106529693584889,0.2572469008667494,9.502894610370657,-0.42545529779022023
1743272152633490176,0.00426118774339557,-0.00532648479565978,-0.00213059387169778,0.2998784127748592,9.241015296494957,-0.39500420904246797
1743272152638489856,0.00106529693584889,0.0,-0.00639178184792399,0.34250789190059694,8.979148469712234,-0.36455457228254456
1743272152643490048,-0.003195890923962,-0.00852237548679113,-0.00426118774339557,-0.07089330388520926,9.757959077704756,-0.000848825669477471
1743272152648489984,-0.0873543471097946,-0.0298283156007528,-0.0735054910182953,-0.5032780756435482,10.58009902345958,0.37672659612464426
1743272152653500160,-0.367527455091476,-0.164055734872818,-0.418661713600159,-0.9365494310262066,11.403924726577785,0.7550762176773445
1743272152658499840,-0.310001403093338,-0.345156192779541,-0.697769522666931,-0.9334220911430045,10.954564179092413,0.7221685977487192
1743272152663500032,-0.0383506901562214,-0.394159853458405,-0.205602318048477,-0.8359771501502025,10.229817447068552,0.6003624215077158
1743272152668499968,0.0969420149922371,-0.485775411128998,0.34835210442543,-0.7385368555879266,9.505105272870939,0.47856205330486995
1743272152673500160,0.105464398860931,-0.627459943294525,0.30893611907959,-0.8320770521039323,9.415769789650309,0.24473555868947022
1743272152678499840,-0.0106529695913196,-0.666875898838043,-0.0106529695913196,-1.0146583836828302,9.622694985141049,-0.04130854136190143
1743272152683510016,-0.0458077676594257,-0.529452562332153,-0.0713749006390572,-1.197614089266682,9.83004447052765,-0.32793916071622514
1743272152688509952,0.00426118774339557,-0.320654392242432,0.00958767253905535,-1.106189608138253,9.9545446630235,-0.3466554987254493
1743272152693510144,0.0383506901562214,-0.177904590964317,0.0692443028092384,-0.7831972156742559,10.009393049422611,-0.1394528282777744
1743272152698509824,0.0213059391826391,-0.121443852782249,0.0426118783652782,-0.4602202243352096,10.064238820506713,0.06773996220278028
1743272152703510016,0.00639178184792399,-0.0809625685214996,0.00213059387169778,0.03473174389992045,10.07479666391394,-0.03499555282205749
1743272152708509952,-0.0138488598167896,-0.0745707824826241,-0.0266324244439602,0.7833152811490851,10.020021642234815,-0.594911659726616
1743272152713520128,0.025567127391696,-0.104399099946022,0.0394159853458405,1.5334337519780366,9.965134307078403,-1.1559758469610062
1743272152718519808,0.0628525167703629,-0.176839292049408,0.0639178156852722,2.0779728575194523,9.932857364402546,-1.5327146608791475
1743272152723520000,0.0596566312015057,-0.221581757068634,0.111856177449226,2.053611631762738,9.963309086428131,-1.398727881251271
1743272152728519936,0.0724401921033859,-0.245018288493156,0.0990726128220558,2.029251567613203,9.993759356435694,-1.264747490464689
1743272152733520128,0.119313262403011,-0.257801860570908,0.109725579619408,1.9444644657817471,9.980402243023095,-1.14737808704376
1743272152738519808,0.169382214546204,-0.287630200386047,0.157663941383362,1.432910611873117,9.657636408465416,-1.14737808704376
1743272152743529984,0.181100472807884,-0.315327882766724,0.17364339530468,0.9203078420464061,9.334208758501415,-1.14737808704376
1743272152748529920,0.0809625685214996,-0.329176753759384,0.131031513214111,0.40875398813777597,9.011442923943736,-1.14737808704376
1743272152753530112,0.0468730665743351,-0.276977211236954,0.036220096051693,0.29349520495167514,9.367208330537595,-1.1173538640011358
1743272152758529792,-0.0159794539213181,-0.20027582347393,-0.0308936107903719,0.18387652281865527,9.732603895729575,-1.0869042082594358
1743272152763529984,-0.0564607381820679,-0.127835631370544,-0.0830931663513184,0.0742526135299379,10.098016884771882,-1.0564531005290019
1743272152768529920,-0.0671137049794197,-0.052199549973011,-0.0809625685214996,0.10370753047673356,10.035875064300692,-0.897301075412556
1743272152773540096,-0.0276977196335793,0.0181100480258465,-0.025567127391696,0.158595077270288,9.895606990938225,-0.7143425837245998
1743272152778539776,0.0298283156007528,0.0617872215807438,0.0287630185484886,0.21337031015349106,9.755625941805063,-0.5317584717426768
1743272152783539968,0.0500689558684826,0.0692443028092384,0.0596566312015057,0.22517597882895649,9.73596604030313,-0.4479767840464647
1743272152788539904,0.0266324244439602,0.0617872215807438,0.0330242030322552,0.21908605527332736,9.766415544190613,-0.4053473001752824
1743272152793540096,-0.0149141578003764,0.0543301440775394,-0.0138488598167896,0.21299584132031352,9.796866500059588,-0.36271578352150174
1743272152798540032,-0.0351548008620739,0.0404812842607498,-0.0415465831756592,0.20345850034518617,9.82387062686813,-0.3511075402899228
1743272152803549952,-0.0298283156007528,0.0266324244439602,-0.037285391241312,0.19125406500961906,9.848279326358528,-0.36331197562548995
1743272152808549888,-0.003195890923962,0.0202406421303749,-0.0106529695913196,0.17907402344381795,9.872639238651542,-0.37549201719129105
1743272152813550080,0.0340895019471645,0.00958767253905535,0.0330242030322552,0.18253313195096058,9.855294573394115,-0.40331221413310786
1743272152818550016,0.0426118783652782,-0.003195890923962,0.0458077676594257,0.2068940020000285,9.782212157819403,-0.45203396372258475
1743272152823549952,0.0223712362349033,-0.00639178184792399,0.0234365332871675,0.23125371045887858,9.709133227006067,-0.5007533901311733
1743272152828550144,-0.00852237548679113,-0.00852237548679113,-0.0149141578003764,0.2415869362470933,9.67813363217384,-0.5266785749008057
1743272152833560064,-0.0266324244439602,-0.00532648479565978,-0.0404812842607498,0.21719362870481085,9.751313359969114,-0.4961869297809761
1743272152838560000,-0.0213059391826391,-0.00639178184792399,-0.0287630185484886,0.1928479167276183,9.824350301449268,-0.4657547791383707
1743272152843559936,0.00639178184792399,0.00106529693584889,-0.00213059387169778,0.17569402459246408,9.87581184084503,-0.4443124064506028
1743272152848560128,0.0245018284767866,-0.00852237548679113,0.0276977196335793,0.19993159225935997,9.803099331432007,-0.474609376657936
1743272152853560064,0.0223712362349033,-0.00852237548679113,0.0191753450781107,0.2241680042154192,9.730390289142262,-0.5049049022262168
1743272152858560000,-0.00106529693584889,-0.003195890923962,-0.00532648479565978,0.2484055718823151,9.657677779729239,-0.53520187243355
1743272152863650048,-0.0159794539213181,-0.00426118774339557,-0.0298283156007528,0.2547497825822342,9.663250005890937,-0.6523159161732554
1743272152868649984,-0.025567127391696,-0.00639178184792399,-0.0319589078426361,0.260839715628752,9.66933996741012,-0.768024501693766
1743272152873650176,-0.0266324244439602,0.00639178184792399,-0.0245018284767866,0.26692993907310725,9.6754302193285,-0.8837386047663973
1743272152878649856,-0.0340895019471645,0.037285391241312,-0.0415465831756592,0.26242663216160667,9.707991320503654,-0.8934845286829449
1743272152883650048,-0.0585913322865963,0.0916155353188515,-0.0596566312015057,0.2563402906073561,9.744509237035079,-0.8873981966139859
1743272152888659968,-0.0798972696065903,0.152337461709976,-0.0788319706916809,0.25024205033082225,9.78109854564059,-0.8812999658412872
1743272152893660160,-0.088419646024704,0.216255277395248,-0.0894849449396133,0.20414094318442705,9.86653732421457,-0.7640666502700582
1743272152898659840,-0.0916155353188515,0.268454819917679,-0.0948114320635796,0.14324075315110862,9.970067634814225,-0.6057261573698094
1743272152903660032,-0.0713749006390572,0.305740207433701,-0.0777666792273521,0.08233765909842855,10.073602882246199,-0.4473781140192768
1743272152908659968,-0.0191753450781107,0.327046155929565,-0.0532648488879204,0.07533434393403622,10.033408791583929,-0.37527316319696463
1743272152913660160,-0.00852237548679113,0.331307351589203,-0.012783563695848,0.10578542912253595,9.893333908629979,-0.3630927257995953
1743272152918669824,0.0671137049794197,0.337699145078659,0.0245018284767866,0.13629604580506238,9.75298518101643,-0.3508884757981208
1743272152923670016,0.0276977196335793,0.316393196582794,0.0553954392671585,0.03194126989295597,9.629455442196436,-0.4680068411192181
1743272152928669952,0.052199549973011,0.289760768413544,0.0383506901562214,-0.23584875437437647,9.525991122506827,-0.7418830233195777
1743272152933670144,0.00639178184792399,0.28336900472641,0.0138488598167896,-0.5036515481817532,9.422521869131668,-1.0157722652778032
1743272152938669824,-0.0287630185484886,0.310001403093338,-0.0628525167703629,-0.697866165497311,9.456852349512166,-1.1216804879371316
1743272152943670016,-0.110790878534317,0.379245728254318,-0.126770332455635,-0.7283172542450632,9.79790433088094,-0.8537109316343959
1743272152948679936,-0.0756360813975334,0.466600060462952,-0.152337461709976,-0.7588278744938005,10.139623064645104,-0.5852174981712363
1743272152953680128,0.0117182666435838,0.541170835494995,-0.101203210651875,-0.7012907446136777,10.37278552590484,-0.34448171991702176
1743272152958679808,0.00639178184792399,0.578456223011017,0.0351548008620739,-0.22017926885761252,10.086554506398883,-0.2348613867548917
1743272152963680000,0.0159794539213181,0.517734348773956,0.0617872215807438,0.26095514865019354,9.8003098379959,-0.12523582635833494
1743272152968679936,0.0639178156852722,0.401616930961609,0.0564607381820679,0.7303749870684454,9.525575512994385,-0.03217836870141773
1743272152973680128,0.0234365332871675,0.262063026428223,0.0319589078426361,0.84608910912376,9.598658232292014,-0.4402228904141372
1743272152978689792,0.0223712362349033,0.165121033787727,0.00958767253905535,0.962029450853129,9.671883827399828,-0.8490651341080803
1743272152983689984,-0.00745707890018821,0.137423306703568,-0.0117182666435838,1.0777435729084435,9.744966546697459,-1.2571096558207997
1743272152988689920,-0.0383506901562214,0.166186332702637,-0.0468730665743351,0.8722308860426182,9.828935475418211,-1.137028082229915
1743272152993690112,-0.0404812842607498,0.223712354898453,-0.0575260370969772,0.6286185240691249,9.914199689634819,-0.9543187941396968
1743272152998689792,-0.0181100480258465,0.267389535903931,-0.0330242030322552,0.38501777817239935,9.999459838229923,-0.7716182181078465
1743272153003689984,0.0213059391826391,0.292956680059433,0.00532648479565978,0.23324931918135805,9.997473967221772,-0.7312647771463134
1743272153008699904,0.0340895019471645,0.329176753759384,0.00958767253905535,0.1112068583949381,9.966963175794909,-0.7373669164118953
1743272153013700096,0.0383506901562214,0.353678584098816,0.0447424724698067,-0.010597476426972063,9.93651191620303,-0.7434571493475916
1743272153018699776,0.0809625685214996,0.374984532594681,0.0617872215807438,-0.027358059412087448,9.842289264228443,-0.6332550687493282
1743272153023699968,0.0948114320635796,0.380311012268066,0.0809625685214996,0.02136367475396013,9.708304633192864,-0.45054855999116605
1743272153028700160,0.118247963488102,0.384572207927704,0.0873543471097946,0.07008540892000771,9.574320002157283,-0.26784205123300386
1743272153033700096,0.0841584652662277,0.367527455091476,0.0798972696065903,0.0956148356199265,9.530186800591133,-0.186591424474909
1743272153038710016,0.082027867436409,0.303609609603882,0.0585913322865963,0.0956148356199265,9.585074664595089,-0.21708451592733327
1743272153043709952,0.0181100480258465,0.225842952728271,0.0191753450781107,0.0956148356199265,9.639850214039601,-0.24751521074263683
1743272153048710144,-0.00532648479565978,0.171512797474861,-0.052199549973011,0.03626832777106149,9.760125403418648,-0.3761824210451028
1743272153053710080,-0.0479383654892445,0.105464398860931,-0.0948114320635796,-0.1403395360147407,10.009812003454574,-0.6989485118567832
1743272153058710016,-0.0607219263911247,0.100137911736965,-0.0575260370969772,-0.31695582132854755,10.259510509770603,-1.021729993736644
1743272153063709952,0.0223712362349033,0.151272162795067,-0.0149141578003764,-0.5377256274766419,10.41968159643014,-1.24304513540246
1743272153068720128,0.117182664573193,0.288695484399796,0.0543301440775394,-0.9404910079158431,10.212196711987017,-1.0477649532526652
1743272153073720064,0.0798972696065903,0.464469462633133,0.109725579619408,-1.3424322277307517,10.005136394500738,-0.8528843641281123
1743272153078720000,0.136358007788658,0.655157625675201,0.170447513461113,-1.701275781475185,9.810435851428274,-0.6445649276172414
1743272153083719936,0.233300030231476,0.774470865726471,0.167251631617546,-1.3602399294875043,9.816525812947457,-0.21827005094186508
1743272153088720128,0.202406421303749,0.756360828876495,0.145945683121681,-1.0191878152399412,9.822616064865837,0.2080451535613056
1743272153093720064,0.0830931663513184,0.616806924343109,0.147010982036591,-0.6781519632522601,9.82870602638502,0.634340030236682
1743272153098720000,0.145945683121681,0.402682244777679,0.148076266050339,-0.08550826428781999,9.834796084387339,0.36180889283515516
1743272153103729920,0.0862890481948853,0.235430628061295,0.156598642468452,0.5308155252024713,9.840898031018952,0.026187011452452613
1743272153108730112,0.121443852782249,0.134227409958839,0.125705033540726,1.1459367603040935,9.846988071696543,-0.3087800135491199
1743272153113730048,0.151272162795067,0.0905502364039421,0.112921476364136,1.3287117497188243,9.77237119219215,-0.49639442358308183
1743272153118729984,0.0713749006390572,0.127835631370544,0.147010982036591,1.3895751083495833,9.674990182618126,-0.6424664691204336
1743272153123729920,0.025567127391696,0.17364339530468,0.141684502363205,1.4504355648556697,9.577613816426211,-0.788531549559295
1743272153128730112,0.0181100480258465,0.226908251643181,0.102268509566784,1.3520155783937862,9.651157290951815,-0.911350981874184
1743272153133740032,0.0202406421303749,0.291891366243362,0.0788319706916809,1.1628468829977225,9.822019100348532,-1.0211908713641638
1743272153138739968,0.0490036569535732,0.338764429092407,0.0617872215807438,0.9740472884683244,9.992547528781785,-1.130816444218295
1743272153143739904,0.0639178156852722,0.380311012268066,0.0458077676594257,0.8309347630569933,10.111299693583561,-1.234345734017135
1743272153148740096,0.0308936107903719,0.428249388933182,0.0745707824826241,0.7334913018434039,10.178291857239884,-1.3317891952307255
1743272153153740032,0.0703096017241478,0.45488178730011,0.101203210651875,0.6360524869897809,10.245280826534026,-1.4292280100843495
1743272153158739968,0.0767013803124428,0.517734348773956,0.152337461709976,0.5868440450511361,10.211418115142825,-1.6165640364185523
1743272153163749888,0.134227409958839,0.563542068004608,0.165121033787727,0.6234567665258695,9.997844096738149,-1.9643850806264476
1743272153168750080,0.157663941383362,0.624264001846313,0.193884029984474,0.659998050243954,9.784686798209481,-2.311527465775069
1743272153173750016,0.224777653813362,0.699900090694427,0.18749226629734,0.6505758068952134,9.605334394957504,-2.5802488372646297
1743272153178749952,0.25354066491127,0.804299235343933,0.168316930532455,0.4800471554120658,9.544431254633832,-2.574158492859509
1743272153183749888,0.343025594949722,0.890588223934174,0.128900930285454,0.30952663518256507,9.483531018331728,-2.5680684388579937
1743272153188750080,0.478318303823471,0.984334349632263,0.0596566312015057,0.14998874771855197,9.434611100736438,-2.530031839483063
1743272153193760000,0.631721138954163,1.09299468994141,0.0202406421303749,0.11339934526266832,9.519986255523541,-2.133646649180942
1743272153198759936,0.720140755176544,1.18461012840271,-0.0436771735548973,0.07688133506399167,9.605194828606638,-1.7380348749927683
1743272153203759872,0.860759973526001,1.21763443946838,-0.0969420149922371,0.04036506613988104,9.690399338721344,-1.3424419646122523
1743272153208760064,0.93639600276947,1.22083032131195,-0.162990435957909,0.06693038903176782,9.976451778411867,-1.1359042406082158
1743272153213760000,1.00244438648224,1.16863071918488,-0.175773993134499,0.09738048701437477,10.274862905920871,-0.9410236514836621
1743272153218759936,1.07488465309143,1.08979880809784,-0.16085983812809,0.12783203700680396,10.57328826313411,-0.7461337694980562
1743272153223769856,1.22722208499908,1.03120744228363,-0.171512797474861,-0.013030999832925522,11.592062861039135,-0.678171453322114
1743272153228770048,1.40512669086456,1.01842391490936,-0.145945683121681,-0.19573750859108768,12.785745251414252,-0.6416301506213475
1743272153233769984,1.60540246963501,0.998183250427246,-0.0138488598167896,-0.37843530542340786,13.979370723880233,-0.6050905903057947
1743272153238769920,1.48928511142731,0.948114335536957,0.233300030231476,-0.30242508849173066,13.980385679600328,-1.0131040273068819
1743272153243769856,1.51059103012085,0.847976386547089,0.539040267467499,-0.09549642540005626,13.377858277944194,-1.6460623087355
1743272153248770048,1.76306641101837,0.749969065189362,0.901241183280945,0.11144210506385083,12.775302144830254,-2.2790507727153275
1743272153253779968,1.66825497150421,0.729728400707245,1.15797770023346,0.318852699872738,11.743753464972764,-2.9071008252314736
1743272153258779904,1.72471570968628,0.725467264652252,1.35399234294891,0.525920054951615,10.324732968509288,-3.528302876231093
1743272153263780096,1.89835917949677,0.747838497161865,1.49248099327087,0.732987410030492,8.905712472045812,-4.149504927230712
1743272153268780032,1.91966509819031,0.846911072731018,1.52657055854797,0.7390034425338146,7.994252771799484,-4.422298695950211
1743272153273780224,2.28186583518982,0.958767235279083,1.55426824092865,0.4225092342574886,7.896869677269397,-4.136236709457256
1743272153278779904,2.23286247253418,1.06103575229645,1.41045308113098,0.10603011725563694,7.799491226220833,-3.850188363150573
1743272153283790080,1.57770478725433,1.14732480049133,0.983269095420837,-0.08927314532953388,7.866872695324672,-3.6066113564403683
1743272153288790016,2.2147524356842,1.17821836471558,1.03227269649506,0.09342465150278631,8.44541600256277,-3.4969925805848243
1743272153293790208,2.05708837509155,1.23894035816193,0.942787766456604,0.27613116026094847,9.023986897579574,-3.3873685775691142
1743272153298789888,1.96866869926453,1.2762256860733,0.893784165382385,0.45059531560163346,9.586062859649642,-3.374653435447121
1743272153303790080,2.08372092247009,1.32629466056824,0.914024770259857,0.554129000259578,10.00628750851152,-4.196832736723026
1743272153308790016,1.85574722290039,1.39873492717743,0.878870010375977,0.657657748159719,10.426492119959281,-5.018972834332077
1743272153313800192,1.00457501411438,1.50952577590942,0.657288193702698,0.7613987766454164,10.847558340214073,-5.842798689615878
1743272153318799872,1.3635801076889,1.60646772384644,0.81601744890213,0.4590046458476952,10.461803619859797,-5.253039820460361
1743272153323800064,1.31883764266968,1.79715597629547,0.96089780330658,0.14230856389237267,10.047662630131867,-4.613557302653113
1743272153328800000,1.06529688835144,1.90901219844818,1.09299468994141,-0.17437241716260854,9.63354138773322,-3.9741052770506045
1743272153333800192,0.730793714523315,1.89942443370819,1.14625954627991,-0.8478396544657396,9.777659416951332,-3.063490634873234
1743272153338799872,0.41653111577034,1.8078088760376,1.10151708126068,-1.596423186972484,10.03935933060634,-2.095809562329327
1743272153343810048,0.205602318048477,1.62990438938141,0.959832549095154,-2.3465416530492913,10.301595847012152,-1.1261443075280466
1743272153348809984,0.170447513461113,1.47010982036591,0.801103293895721,-2.4938124708456306,10.617872588077427,-1.3364753365994892
1743272153353810176,0.156598642468452,1.33694756031036,0.702030718326569,-2.365834295554022,10.959147418266989,-2.086061466248866
1743272153358809856,-0.0426118783652782,1.17289197444916,0.64343935251236,-2.237862222597684,11.300405975576988,-2.835611853664328
1743272153363800064,-0.359005063772202,1.06742751598358,0.616806924343109,-1.7776518129884311,10.839468430619007,-3.197689892836538
1743272153368800000,-0.699900090694427,1.03759920597076,0.594435691833496,-1.0407707353216322,9.712832231155616,-3.2403193956894976
1743272153373799936,-1.06316637992859,1.01309740543365,0.536909639835358,-0.3038545195556648,8.586142308159753,-3.2829509313259604
1743272153378799872,-1.40938782691956,0.966224312782288,0.3771151304245,0.3885264261382588,8.043004835298232,-3.18217671346556
1743272153383810048,-1.61285960674286,0.923612415790558,0.138488605618477,1.0170845480972655,8.354232618466598,-2.8709488542132426
1743272153388809984,-1.58196604251862,0.914024770259857,-0.147010982036591,1.6443564799332948,8.664823550265579,-2.5603578464859966
1743272153393809920,-1.3635801076889,0.932134807109833,-0.351547986268997,2.2618618239353694,9.03745638998879,-2.370545327655273
1743272153398809856,-1.15052080154419,0.943853139877319,-0.431445270776749,2.8525846745762915,9.579459928111776,-2.510613683325411
1743272153403810048,-1.04825210571289,0.969420194625854,-0.414400517940521,3.443335693776206,10.121489311618298,-2.650688718140829
1743272153408809984,-1.02588093280792,1.02907681465149,-0.359005063772202,3.9327494348879135,10.590229206016573,-2.7619252212963774
1743272153413819904,-1.01735854148865,1.12708413600922,-0.290826082229614,3.731498128331957,10.559736715143119,-2.676545851472287
1743272153418819840,-1.0972558259964,1.21976506710052,-0.218385860323906,3.5306586332436836,10.529306619677849,-2.5913411896001537
1743272153423820032,-1.18354487419128,1.3103152513504,-0.142749801278114,3.3298095611445344,10.498875073156572,-2.506132464752394
1743272153428819968,-1.23041796684265,1.41045308113098,-0.0426118783652782,2.7738471291258944,10.354105072137369,-2.324603476325218
1743272153433819904,-1.24107086658478,1.48928511142731,0.082027867436409,2.2135387089257916,10.20793741386953,-2.1418942072179687
1743272153438819840,-1.19632840156555,1.56918239593506,0.214124694466591,1.6532570057016658,10.061776725259246,-1.9591936501681824
1743272153443830016,-1.08979880809784,1.63949203491211,0.330242067575455,1.3040753605298734,10.515806973864809,-1.7864741128505923
1743272153448829952,-0.911894202232361,1.63523089885712,0.451685905456543,0.9934891263203397,11.076080092836918,-1.6159562153294176
1743272153453829888,-0.678594172000885,1.57877004146576,0.645569980144501,0.6828880818378477,11.636379928375668,-1.4454301866796597
1743272153458830080,-0.493232488632202,1.508460521698,0.90230655670166,0.7830717358882445,11.68644409758988,-1.5300232809786531
1743272153463830016,-0.405878126621246,1.46691381931305,1.17395722866058,1.0510325744076034,11.528103908402697,-1.7188138540658242
1743272153468830208,-0.387768059968948,1.46158742904663,1.38808190822601,1.3190061906122668,11.369756168779714,-1.9076134296122529
1743272153473839872,-0.383506923913956,1.47756695747375,1.54041934013367,1.549181654341727,11.172780320562259,-1.8703459223695005
1743272153478840064,-0.355809181928635,1.53083169460297,1.65866732597351,1.750158790721919,10.947442214473892,-1.6632785720362941
1743272153483840000,-0.32278499007225,1.58622717857361,1.7545440196991,1.9511263439847935,10.722114853097812,-1.4562210952177899
1743272153488840192,-0.249279484152794,1.64162254333496,1.81420075893402,2.0258399728129954,10.517872225063714,-1.2229157409431786
1743272153493839872,-0.148076266050339,1.6874303817749,1.81633126735687,1.9345479215645247,10.341374142967553,-0.955125683478405
1743272153498840064,-0.113986775279045,1.71193218231201,1.71938931941986,1.8432515170638846,10.164867644578313,-0.6873228564720041
1743272153503849984,-0.135292708873749,1.73856461048126,1.56279063224792,1.8068902650307876,10.133812372364881,-0.5078675182325034
1743272153508850176,-0.165121033787727,1.72897696495056,1.34973120689392,1.9043337642097427,10.456593901701467,-0.5444088209332699
1743272153513849856,-0.192818760871887,1.69488739967346,1.12814950942993,2.001772617026921,10.779360039967608,-0.5809483812488228
1743272153518850048,-0.352613270282745,1.65866732597351,0.928938925266266,2.1306928695338896,10.919761482348644,-0.6591501100796743
1743272153523849984,-0.663679957389832,1.62883901596069,0.782993257045746,2.4351891232424636,10.042812186629579,-0.9697363442892086
1743272153528850176,-1.08660292625427,1.57877004146576,0.648765802383423,2.7396998968238955,9.165821073672628,-1.2803373887717013
1743272153533860096,-1.57877004146576,1.57557415962219,0.470861256122589,3.038849907927924,8.296560009179377,-1.5847386993579833
1743272153538860032,-1.99103999137878,1.60007607936859,0.249279484152794,2.9170437791443473,8.09557985872053,-1.4081197366899134
1743272153543859968,-2.23073172569275,1.66825497150421,0.0596566312015057,2.795243458396665,7.894609291522721,-1.2315091956775115
1743272153548860160,-2.28399682044983,1.75560927391052,-0.0532648488879204,2.673437329613088,7.693629141063875,-1.0548902330094416
1743272153553859840,-2.10076546669006,1.81526601314545,-0.0532648488879204,2.4026030701306826,8.291065755573786,-0.6547287943125092
1743272153558860032,-1.80674362182617,1.85681259632111,0.0671137049794197,2.11027264852455,9.00362128162617,-0.22232340433034836
1743272153563869952,-1.55320298671722,1.92073035240173,0.314262598752975,1.817370724568339,9.717569844898092,0.2109273328284893
1743272153568870144,-1.35718834400177,1.97079944610596,0.672202348709106,1.4846958564055557,9.654685680198236,0.5895492933130486
1743272153573869824,-1.16223895549774,1.95375466346741,1.07701528072357,1.137564771436071,9.313644174678632,0.9488603818842025
1743272153578870016,-0.908698320388794,1.85787785053253,1.4647833108902,0.7904171335561401,8.97258640662956,1.3081886041680346
1743272153583869952,-0.651961743831635,1.74282574653625,1.74708688259125,0.8570725620603044,8.60977024315966,1.4642344713392086
1743272153588870144,-0.458077698945999,1.6629284620285,1.89409792423248,1.2042149282262464,8.232176902142061,1.4825051511636136
1743272153593880064,-0.332372665405273,1.61712086200714,1.91114270687103,1.5520359534143517,7.853845370823978,1.5008115499405648
1743272153598880000,-0.328111469745636,1.59474945068359,1.82911479473114,1.957756254070171,7.805387998079841,1.482821301963168
1743272153603879936,-0.381376326084137,1.55852937698364,1.6970180273056,2.4327777327709157,8.146429048029875,1.4219211036251975
1743272153608880128,-0.386702805757523,1.4839586019516,1.53189694881439,2.9078218628225114,8.487486360487656,1.3610180012674695
1743272153613879808,-0.272716015577316,1.40832257270813,1.38488602638245,3.4390042042095352,8.789792560288852,1.1974750655998543
1743272153618880000,-0.136358007788658,1.37103712558746,1.2762256860733,4.090657362939592,9.009040414458813,0.8137914133429934
1743272153623889920,-0.140619203448296,1.3678412437439,1.24000561237335,4.7435844955161075,9.228716895465556,0.42935766430268196
1743272153628890112,-0.338764429092407,1.38382077217102,1.25172388553619,5.26150532949241,9.312089678426766,0.1213112122859862
1743272153633889792,-0.584848046302795,1.42004072666168,1.2666380405426,5.170213354123804,8.776509563497221,0.15782803420812141
1743272153638889984,-0.726532518863678,1.46052217483521,1.24639749526978,5.078917025506647,8.24090390948442,0.19434659743119234
1743272153643889920,-0.762752652168274,1.51911342144012,1.17821836471558,4.9746618652084535,7.718040706620733,0.24799134859651192
1743272153648890112,-0.803233861923218,1.58516180515289,1.08873343467712,4.542256484717632,7.517063760067364,0.7352086973754949
1743272153653900032,-0.875674068927765,1.65121018886566,1.00564026832581,4.109005757068689,7.315693906075092,1.2233785500310723
1743272153658899968,-0.940657198429108,1.70554041862488,0.958767235279083,3.676600376577868,7.114716959521724,1.7105958988100551
1743272153663899904,-0.961963176727295,1.74602162837982,0.910828828811646,3.414125415911747,7.209721380691321,2.269042562968468
1743272153668900096,-0.931069552898407,1.7406952381134,0.877804636955261,3.1705167059297277,7.337615911669982,2.8354327643216894
1743272153673899776,-0.881000578403473,1.71299755573273,0.883131206035614,2.926919611850339,7.465504344301751,3.4017959587036466
1743272153678899968,-0.845845818519592,1.66718971729279,0.958767235279083,2.817532467302628,7.232383121426758,3.690487124154128
1743272153683909888,-0.838388681411743,1.59155368804932,1.08127641677856,2.7504080872220724,6.8845567951984465,3.891860264395798
1743272153688910080,-0.807495057582855,1.48821985721588,1.20272028446198,2.683414678425165,6.537409138335545,4.092840490786523
1743272153693909760,-0.689247131347656,1.37636363506317,1.29433584213257,2.991219245102818,6.440263900823702,3.960602813271921
1743272153698909952,-0.488971292972565,1.27302992343903,1.33694756031036,3.5268167707005507,6.495040775620838,3.6258543597733377
1743272153703910144,-0.246083587408066,1.18993675708771,1.32629466056824,4.062414296298284,6.549817650417975,3.291105906274754
1743272153708910080,-0.0426118783652782,1.13986766338348,1.30605399608612,4.834932184197638,6.7683075574644604,2.628871685219199
1743272153713910016,0.144880384206772,1.10258233547211,1.28261756896973,5.864194465976098,7.164177665840791,1.6117900044547389
1743272153718919936,0.418661713600159,1.07488465309143,1.19632840156555,6.8954689427551745,7.560821695371204,0.5927199416136366
1743272153723920128,0.698834776878357,1.10471296310425,1.03653395175934,7.510204616084413,7.946274684365465,-0.04316352751294467
1743272153728920064,0.688181817531586,1.23574447631836,0.852237582206726,7.327506833488424,8.311670401411655,0.05427529445884467
1743272153733920000,0.41653111577034,1.37955951690674,0.694573581218719,7.144800338967272,8.677083542315414,0.1517187627909397
1743272153738919936,0.116117365658283,1.49461162090302,0.551823794841766,6.862460424731691,8.914545519922203,0.4238381395511037
1743272153743930112,-0.135292708873749,1.5809006690979,0.459142982959747,6.185082138354068,8.646035221913769,1.388034162552137
1743272153748930048,-0.378180414438248,1.65440618991852,0.430379986763,5.509089940598994,8.378074364412345,2.350257194738045
1743272153753929984,-0.604023396968842,1.67890799045563,0.47192656993866,4.839329850155722,8.093742198860728,3.288710816990231
1743272153758929920,-0.807495057582855,1.64055728912354,0.533713757991791,4.261155608196306,7.570342219793298,3.8790570667842803
1743272153763930112,-0.987530291080475,1.57237827777863,0.569933831691742,3.682953796057025,7.046917282451154,4.46943146717915
1743272153768930048,-1.04186046123505,1.49035048484802,0.583782732486725,3.1047795540976093,6.523517303383725,5.0597777169731994
1743272153773929984,-0.944918394088745,1.39340841770172,0.599762201309204,2.9249116978727385,6.690445322734879,4.971069127957104
1743272153778939904,-0.74677312374115,1.28794395923615,0.650896430015564,2.7784607358946314,6.916223962026998,4.824618242058171
1743272153783940096,-0.514538407325745,1.18354487419128,0.742511928081512,2.6322955250915636,7.141562068115339,4.678453107185832
1743272153788940032,-0.25354066491127,1.08979880809784,0.83306223154068,2.7773799428780506,7.300049109933226,4.241048743056813
1743272153793939968,-0.0490036569535732,0.999248504638672,0.861825227737427,3.002721395025493,7.440126271932164,3.723372429965024
1743272153798939904,0.0426118783652782,0.914024770259857,0.863955795764923,3.2280521023010995,7.580196754684392,3.2057208010384595
1743272153803940096,0.0649831146001816,0.861825227737427,0.86715167760849,3.3474944351137683,7.528089177680724,2.903765562217843
1743272153808950016,0.0681790038943291,0.825605094432831,0.88419646024704,3.408515713650828,7.369433975211041,2.720701878765003
1743272153813949952,0.0788319706916809,0.793646216392517,0.901241183280945,3.469417929111696,7.211088336501947,2.5379953842438514
1743272153818949888,0.0873543471097946,0.76488322019577,0.900175929069519,3.505666042569013,6.917165003105289,2.5001245673099226
1743272153823950080,0.0575260370969772,0.756360828876495,0.870347619056702,3.5178466554473715,6.4908433245671215,2.603659814741906
1743272153828950016,0.0159794539213181,0.753164947032928,0.819213330745697,3.530026687522141,6.064541974165448,2.7071901253415684
1743272153833949952,0.012783563695848,0.752099633216858,0.726532518863678,3.4664181338448397,5.827695412334647,2.8932011810312654
1743272153838959872,0.0575260370969772,0.753164947032928,0.620002806186676,3.271150209900424,5.9192271779818935,3.2227158264622098
1743272153843960064,0.119313262403011,0.762752652168274,0.502820134162903,3.076263287473247,6.01058034931174,3.551587531786426
1743272153848960000,0.172578096389771,0.747838497161865,0.381376326084137,2.8843469261351773,6.316084160975462,3.8400265023321363
1743272153853959936,0.223712354898453,0.716944873332977,0.237561225891113,2.7024496962907953,7.346834651329234,3.991607590197767
1743272153858959872,0.28336900472641,0.646635234355927,0.0916155353188515,2.5205611397837124,8.37753599279447,4.14318145027931
1743272153864039936,0.287630200386047,0.558215618133545,-0.00213059387169778,2.4003471780465224,9.348446851917082,4.24957023828267
1743272153869040128,0.18749226629734,0.45488178730011,-0.0138488598167896,2.936286233703945,9.531153802022606,3.871976669472883
1743272153874039808,-0.0340895019471645,0.345156192779541,0.0330242030322552,3.4721997343806477,9.713852040181244,3.494401105315432
1743272153879040000,-0.298283129930496,0.25354066491127,0.0905502364039421,4.008138790038071,9.89655899028677,3.116807536505644
1743272153884040192,-0.531583189964294,0.18749226629734,0.122509144246578,4.717655970349668,9.64534226919361,2.8086368362452814
1743272153889039872,-0.748903751373291,0.164055734872818,0.147010982036591,5.436278242402304,9.371291357690673,2.504135958447816
1743272153894049792,-0.931069552898407,0.178969889879227,0.2151899933815,6.156339746509978,9.096691586415519,2.199025236729341
1743272153899049984,-1.04186046123505,0.204537019133568,0.34728679060936,6.430009673541644,8.565175393726577,2.14177250862122
1743272153904050176,-1.08127641677856,0.268454819917679,0.491101890802383,6.600644647675681,7.974047123039027,2.14177250862122
1743272153909050112,-1.07381927967072,0.352613270282745,0.584848046302795,6.77127148548633,7.382947038898811,2.14177250862122
1743272153914050048,-1.06529688835144,0.447424709796906,0.641308784484863,6.679125568879403,7.124558242524132,2.2731270484156774
1743272153919049984,-1.05038273334503,0.541170835494995,0.648765802383423,6.45988483967705,7.027117834069465,2.468007561611968
1743272153924060160,-1.04612159729004,0.628525197505951,0.631721138954163,6.240194568185075,6.9294776288686455,2.663287667677814
1743272153929060096,-1.06210112571716,0.690312385559082,0.592305064201355,6.047070479614222,6.779808382943012,2.78961515855674
1743272153934060032,-1.08340704441071,0.735054910182953,0.544366717338562,5.87654433706837,6.5849215364465605,2.856607625935987
1743272153939059968,-1.0684928894043,0.777666747570038,0.491101890802383,5.706026325656532,6.390043982666421,2.923596898938571
1743272153944060160,-1.06529688835144,0.826670408248901,0.412269920110703,5.540322761492194,6.366392879551253,3.106355570714944
1743272153949059840,-1.06316637992859,0.866086423397064,0.325980871915817,5.381982268591946,6.603903618901626,3.4656667067412634
1743272153954070016,-1.05570924282074,0.88526177406311,0.256736576557159,5.223317106329497,6.8419013622952995,3.825714592510043
1743272153959069952,-1.06103575229645,0.901241183280945,0.243952989578247,5.055549211950012,7.084125181962115,4.087601146857886
1743272153964070144,-1.12388837337494,0.920416593551636,0.287630200386047,4.860662365453564,7.339914243919434,4.069330391102748
1743272153969070080,-1.15158605575562,0.925743043422699,0.356874465942383,4.665784811673428,7.595691109182974,4.051060506545196
1743272153974070016,-1.10364758968353,0.900175929069519,0.45594710111618,4.497493403685649,7.853657044761383,4.037822733735635
1743272153979069952,-1.03333806991577,0.878870010375977,0.563542068004608,4.527962492719773,8.12787884606851,4.062197974572711
1743272153984080128,-1.02694630622864,0.881000578403473,0.67007178068161,4.558494057116468,8.402662925638774,4.086623195637529
1743272153989080064,-1.01096677780151,0.877804636955261,0.7638179063797,4.588963146150592,8.676884726945902,4.110998436474604
1743272153994080000,-0.920416593551636,0.872478187084198,0.847976386547089,4.547648494404741,8.580158122098167,4.248990204289003
1743272153999079936,-0.809625685214996,0.879935264587402,0.928938925266266,4.505018268250659,8.476627507785457,4.389060687041228
1743272154004080128,-0.74677312374115,0.890588223934174,0.9790078997612,4.462386009278584,8.373091956625945,4.529137849040163
1743272154009079808,-0.812821626663208,0.878870010375977,0.988595545291901,4.383861628917045,7.977276179758308,4.638439454695054
1743272154014089984,-0.981138527393341,0.834127485752106,0.958767235279083,4.298427955995408,7.525697716080667,4.742180473670404
1743272154019089920,-1.17395722866058,0.7638179063797,0.889522969722748,4.213169102143707,7.075043297036992,4.845709212079657
1743272154024090112,-1.36890661716461,0.688181817531586,0.818148076534271,4.183642588291733,6.615787532867223,4.820619177720544
1743272154029090048,-1.50739514827728,0.632786393165588,0.762752652168274,4.177552534290218,6.152946162169506,4.74144893127042
1743272154034089984,-1.56066012382507,0.627459943294525,0.728663086891174,4.171462189885098,5.690082720928148,4.662274909595154
1743272154039089920,-1.54574584960938,0.640243411064148,0.673267722129822,3.9936310462304587,5.089852375342697,4.541887498039863
1743272154044100096,-1.49141573905945,0.634916961193085,0.6018927693367,3.682407837138829,4.381972360320591,4.389327193919124
1743272154049100032,-1.41791021823883,0.605088651180267,0.510277271270752,3.3718214700568563,3.6755408482320506,4.237079067064835
1743272154054099968,-1.27835631370544,0.540105521678925,0.425053507089615,3.6812846462387476,3.179222992305735,4.518090367485555
1743272154059099904,-1.0205545425415,0.474057167768478,0.36113566160202,4.826190730259704,2.9660755539680466,5.382859892020459
1743272154064100096,-0.83306223154068,0.512407839298248,0.315327882766724,5.971151409010717,2.752917951716461,6.247670653002102
1743272154069099776,-0.88419646024704,0.707357168197632,0.320654392242432,6.6963512891843235,3.0918378789223935,6.5830156669638455
1743272154074099968,-0.209863498806953,0.699900090694427,0.209863498806953,6.373565009941904,4.809305054089654,5.596385568225575
1743272154079109888,0.49429777264595,0.707357168197632,0.0969420149922371,6.050147687525303,6.530129856292097,4.6078266198760005
1743272154084110080,1.2666380405426,0.904437124729156,0.0426118783652782,5.652624562400565,8.065465634297537,3.844695001272069
1743272154089110016,2.08372092247009,1.23894035816193,0.206667602062225,4.824922490499492,8.55234913458879,4.368094752703362
1743272154094109952,1.68636500835419,1.91327321529388,0.384572207927704,3.997180949709387,9.039255851870186,4.891519462398516
1743272154099109888,0.966224312782288,2.29784536361694,0.373919248580933,3.1737590848992268,9.521095514478512,5.412561735784638
1743272154104110080,0.262063026428223,2.32660865783691,0.374984532594681,3.0641335689940052,9.161767320669137,5.540458208973336
1743272154109120000,-0.281238406896591,2.15509581565857,0.462338894605637,2.95429373656427,8.80173664469563,5.6686047181815225
1743272154114119936,-0.737185478210449,1.97399520874023,0.596566259860992,2.8446682206590483,8.442408450886257,5.79650119137022
1743272154119119872,-1.04292571544647,1.83870244026184,0.755295515060425,3.1685100035056166,8.188824198902811,5.845098491189398
1743272154124120064,-1.24000561237335,1.7598705291748,0.934265434741974,3.5582838483599746,7.951305740839171,5.88164000269967
1743272154129120000,-1.33907830715179,1.71725869178772,1.14519417285919,3.9480576932143325,7.713787282775531,5.918181514209941
1743272154134119936,-1.2708991765976,1.66079795360565,1.31670701503754,4.37328577517377,7.26346644284242,5.830581558027683
1743272154139130112,-1.25491988658905,1.56385588645935,1.41471433639526,4.812666165989825,6.732548540349973,5.696326256855566
1743272154144130048,-1.38808190822601,1.46584856510162,1.44454264640808,5.251147472538006,6.20271703120516,5.562345676248329
1743272154149129984,-1.60753297805786,1.42643260955811,1.45732617378235,5.456076216113696,5.471635700030664,5.3888328696880885
1743272154154129920,-1.62244725227356,1.43815088272095,1.41045308113098,5.498705794893762,4.600776213976578,5.187865354388768
1743272154159130112,-1.53615820407867,1.49141573905945,1.25491988658905,5.541337406460951,3.72987520107656,4.98688825597394
1743272154164130048,-1.47863221168518,1.55959463119507,1.0205545425415,5.353766518499696,3.124842406238839,5.035304551171569
1743272154169140224,-1.40832257270813,1.63736140727997,0.751034319400787,4.883880708768346,2.844131364487267,5.3892445967240175
1743272154174139904,-1.34014356136322,1.72578108310699,0.508146643638611,4.414956405167121,2.5639947290741034,5.742460390731841
1743272154179140096,-1.19313251972198,1.83124554157257,0.301479011774063,4.00301046375805,2.5004547823208623,6.067193181683097
1743272154184140032,-0.957701981067657,1.89090204238892,0.116117365658283,3.716779444252081,2.9145760247195054,6.329063985183008
1743272154189139968,-0.711618363857269,1.92179560661316,-0.0596566312015057,3.430534775849087,3.328717014447432,6.590947275965522
1743272154194139904,-0.461273580789566,1.91753447055817,-0.205602318048477,3.1715526243841214,3.8286290759480752,6.792074495782193
1743272154199150080,-0.221581757068634,1.90581631660461,-0.301479011774063,3.0434837217165827,4.743407679901637,6.700596566955967
1743272154204150016,0.00532648479565978,1.92392635345459,-0.333437949419022,2.915676880665809,5.656314413674842,6.609305825287804
1743272154209149952,0.206667602062225,1.97079944610596,-0.296152532100677,2.799163134273657,6.556228153783439,6.519372843899504
1743272154214149888,0.398421049118042,2.02832531929016,-0.20027582347393,3.02449384154926,7.0616997506352375,6.47065271560043
1743272154219150080,0.582717418670654,2.08691668510437,-0.0628525167703629,3.2498352936966994,7.567195450848671,6.421930264086999
1743272154224150016,0.751034319400787,2.15189981460571,0.103333801031113,3.475166000972303,8.072667047700469,6.373210135787925
1743272154229160192,0.90976357460022,2.2147524356842,0.290826082229614,3.5158370834401897,7.8659173188377025,6.231831507158466
1743272154234159872,1.07168877124786,2.29464960098267,0.506016075611115,3.5341068161435247,7.57360083631328,6.0795833803041806
1743272154239160064,1.21017730236053,2.38519978523254,0.722271323204041,3.5523774200372036,7.281270414707147,5.927327993513466
1743272154244160000,1.29859697818756,2.4608359336853,0.904437124729156,3.5339126965052827,7.007317917823067,5.68324134532665
1743272154249159936,1.32522940635681,2.50770902633667,1.04505634307861,3.5034611263434483,6.7393442826354315,5.409177365733897
1743272154254159872,1.30924999713898,2.52794981002808,1.13134527206421,3.4730110081923975,6.471383425134006,5.135126454230958
1743272154259170048,1.26344227790833,2.54179835319519,1.17182672023773,3.46500864809672,6.559281959922683,4.901784330744499
1743272154264169984,1.30392348766327,2.60997748374939,1.22722208499908,3.471098609615901,6.869868175150441,4.694726853925994
1743272154269169920,1.56066012382507,2.79853510856628,1.42110621929169,3.477188861534277,7.180469200650252,4.487659503592788
1743272154274169856,1.76945829391479,2.98176622390747,1.59474945068359,3.477483097222999,7.212856754654275,4.73838052781186
1743272154279170048,1.87172675132751,3.10960173606873,1.68423449993134,3.471396634844,6.938967465268875,5.493097461566016
1743272154284169984,1.86959612369537,3.16286659240723,1.70767092704773,3.4653104626835014,6.665091235643602,6.247778408436052
1743272154289180160,1.77371942996979,3.13090777397156,1.64162254333496,3.502185613817116,6.660725148496677,6.824078763293959
1743272154294179840,1.62990438938141,3.01265978813171,1.5276358127594,3.62398416085681,7.190548915435523,7.043316163150828
1743272154299180032,1.48502385616302,2.82090616226196,1.4839586019516,3.74578851584782,7.720397946966754,7.2625640173207895
1743272154304179968,1.26876866817474,2.56523513793945,1.45626091957092,3.794781497354976,8.132061810419684,7.4101893923367355
1743272154309179904,1.02801156044006,2.33193492889404,1.4072573184967,3.5450826113853067,8.058979091122058,7.264024257464401
1743272154314179840,0.84051924943924,2.16361808776855,1.3678412437439,3.295395631713843,7.985899856600289,7.1178660921293
1743272154319190016,0.714814245700836,2.07306790351868,1.34653544425964,3.0374276281398846,7.8918361282059015,6.97705816531055
1743272154324189952,0.579521536827087,2.04430484771729,1.3678412437439,2.65375642796403,7.459444875659235,6.928338037011476
1743272154329189888,0.457012385129929,2.07519841194153,1.41258382797241,2.270066932466056,7.027033004579712,6.879615585498045
1743272154334189824,0.385637521743774,2.04963135719299,1.42323672771454,1.8863957322902014,6.594641752033047,6.830895457198971
1743272154339190016,0.236495926976204,1.99317061901093,1.44667327404022,1.866109273998172,6.128691456514898,6.5361814056322105
1743272154344189952,0.0724401921033859,1.92818748950958,1.4743709564209,1.8782891590729858,5.65976715291367,6.219505228885269
1743272154349200128,-0.0468730665743351,1.89516317844391,1.49035048484802,1.8904940184007306,5.189881343182318,5.902179723274652
1743272154354199808,-0.0777666792273521,1.92286098003387,1.49567699432373,2.0307513380551865,5.091453461158581,5.965338640703052
1743272154359200000,-0.0564607381820679,1.95695054531097,1.45626091957092,2.2071452879398015,5.09753589478688,6.135649967371508
1743272154364200192,0.00639178184792399,1.97825634479523,1.43069386482239,2.383539237824416,5.103618328415179,6.305961294039964
1743272154369210112,0.176839292049408,2.01660704612732,1.43815088272095,2.5720764322524605,5.2923371100707755,6.402917732560795
1743272154374219776,0.470861256122589,2.05708837509155,1.46158742904663,2.767344356196879,5.5852391861853325,6.457836852812482
1743272154379219968,0.773405611515045,2.05389261245728,1.49461162090302,2.96223127862406,5.877569759652924,6.512648816354974
1743272154384219904,0.99605268239975,2.04323959350586,1.53402769565582,3.0840336803423267,6.10290144168706,6.497426680714773
1743272154389220096,1.13347601890564,2.01128053665161,1.57344365119934,3.1327562077876374,6.2612493331738275,6.412162314634387
1743272154394220032,1.20485079288483,1.98890936374664,1.59581482410431,3.181478735232948,6.419597224660595,6.3268979485540005
1743272154399219968,1.2282874584198,1.97612583637238,1.60859847068787,3.2148497328253742,6.244852636156162,6.721509388878817
1743272154404230144,1.24426686763763,1.97825634479523,1.62564325332642,3.2209482157932103,5.476438611876544,7.971706685023705
1743272154409230080,1.25172388553619,2.01128053665161,1.63842666149139,3.2270342197105273,4.709596958542202,9.219345758853267
1743272154414230016,1.21017730236053,2.03684782981873,1.62564325332642,3.1969437050873677,4.087319347690073,10.079988323029168
1743272154419229952,0.711618363857269,1.87705314159393,1.4743709564209,3.0386032121871196,3.977699059017157,9.568426824032384
1743272154424230144,-0.888457655906677,1.01735854148865,0.901241183280945,2.8802551688365874,3.8680735431119353,9.056840931277602
1743272154429230080,-1.46052217483521,0.447424709796906,0.386702805757523,2.7258131628280804,3.7711228508154253,8.554538500259927
