#timestamp [ns],w_RS_S_x [rad s^-1],w_RS_S_y [rad s^-1],w_RS_S_z [rad s^-1],a_RS_S_x [m s^-2],a_RS_S_y [m s^-2],a_RS_S_z [m s^-2]
1743528214376199936,-0.00345554086379707,4.82044697491801e-06,8.22767106001265e-06,0.0773881673812866,-9.81168365478516,-0.10728594660759
1743528214381200128,-0.00520086986944079,4.82044697491801e-06,8.22767106001265e-06,0.0773864112148205,-9.811689078033842,-0.10698493908621214
1743528214386200064,-0.00345554086379707,0.00349547900259495,8.22767106001265e-06,0.0773498386557734,-9.811802018399387,-0.10071639019761724
1743528214391200000,-0.00345554086379707,-0.00348583795130253,-0.00173710158560425,0.07731326435276754,-9.811914964150482,-0.09444754239390679
1743528214396199936,-0.0017102116253227,4.82044697491801e-06,8.22767106001265e-06,0.07727669179372045,-9.812027904516025,-0.0881789935053119
1743528214401210112,-0.00345554086379707,4.82044697491801e-06,8.22767106001265e-06,0.07730527204100641,-9.811939645349593,-0.09307765747710424
1743528214406210048,-0.0017102116253227,0.00175014964770526,-0.00173710158560425,0.0773418214214285,-9.811826776562368,-0.0993422335415959
1743528214411209984,-0.0017102116253227,0.00175014964770526,8.22767106001265e-06,0.07737837254470407,-9.81171390239301,-0.10560710833175942
1743528214416209920,-0.00345554086379707,0.00175014964770526,-0.00173710158560425,0.0773881673812866,-9.81168365478516,-0.10728594660759
1743528214421210112,-0.0017102116253227,4.82044697491801e-06,0.00175355689134449,0.0773881673812866,-9.81168365478516,-0.10728594660759
1743528214426210048,-0.0017102116253227,0.00175014964770526,-0.0034824307076633,0.0773881673812866,-9.81168365478516,-0.10728594660759
1743528214431209984,-0.0017102116253227,4.82044697491801e-06,8.22767106001265e-06,0.07737552398766136,-9.80804617102397,-0.1071323082485502
1743528214436219904,3.51176349795423e-05,4.82044697491801e-06,0.00175355689134449,0.07735345423934378,-9.801696740364896,-0.10686412392902013
1743528214441220096,-0.0017102116253227,0.00175014964770526,-0.00173710158560425,0.07733142755292507,-9.795359698544022,-0.10659646288351568
1743528214446220032,-0.00520086986944079,0.00349547900259495,-0.00173710158560425,0.07730333287827076,-9.79171893273937,-0.10382206390054054
1743528214451219968,-0.0017102116253227,4.82044697491801e-06,8.22767106001265e-06,0.0772667864706607,-9.79183180690873,-0.09755718911037704
1743528214456219904,-0.00345554086379707,4.82044697491801e-06,8.22767106001265e-06,0.07723024180567925,-9.791944675695953,-0.09129261304588542
1743528214461220096,-0.00520086986944079,-0.00348583795130253,8.22767106001265e-06,0.07880872462390229,-9.793652345631617,-0.08829883851046134
1743528214466219776,-0.00520086986944079,-0.00174050882924348,0.00175355689134449,0.08503142555029879,-9.79994604273434,-0.09471181621461511
1743528214471389952,-0.00345554086379707,0.00175014964770526,-0.00173710158560425,0.09146599088284887,-9.80645402145126,-0.10134313668166839
1743528214476579840,-0.0017102116253227,0.00175014964770526,8.22767106001265e-06,0.09663053351964318,-9.81229943404337,-0.10731895126798097
1743528214481810176,-0.00520086986944079,4.82044697491801e-06,-0.0034824307076633,0.09036400264900396,-9.812098897388816,-0.10730820286408262
1743528214487059968,3.51176349795423e-05,-0.00174050882924348,-0.0034824307076633,0.08407376197017478,-9.811897601991394,-0.10729741379293152
1743528214492350208,-0.00345554086379707,4.82044697491801e-06,-0.00173710158560425,0.07773553035428643,-9.811694770825271,-0.10728654240734112
1743528214497659904,-0.00520086986944079,-0.00174050882924348,0.00175355689134449,0.08329593998708323,-9.81187271073632,-0.10729607966644146
1743528214503000064,-0.0017102116253227,4.82044697491801e-06,8.22767106001265e-06,0.0895805417835512,-9.812073825682608,-0.1073068590657364
1743528214508379904,3.51176349795423e-05,4.82044697491801e-06,-0.00173710158560425,0.0959120017146745,-9.812276440146533,-0.1073177188364789
1743528214513789952,-0.00345554086379707,4.82044697491801e-06,-0.0034824307076633,0.09233976851327243,-9.812162124313694,-0.10731159171350443
1743528214519220224,-0.00345554086379707,-0.00174050882924348,8.22767106001265e-06,0.08606060882485192,-9.811961183521522,-0.10730082164855675
1743528214524689920,-0.00345554086379707,4.82044697491801e-06,8.22767106001265e-06,0.07973568427393239,-9.811758778197758,-0.10728997308735069
1743528214530180096,-0.0017102116253227,4.82044697491801e-06,8.22767106001265e-06,0.07740191989763553,-9.815640419900257,-0.10745306855326477
1743528214535710208,-0.00345554086379707,0.00349547900259495,-0.00173710158560425,0.07742390099029774,-9.821964645840492,-0.10772018497621998
1743528214541270016,-0.0017102116253227,4.82044697491801e-06,-0.00173710158560425,0.07744600054110103,-9.828322953619164,-0.10798874091428058
1743528214546850048,-0.00345554086379707,4.82044697491801e-06,8.22767106001265e-06,0.07743036803354623,-9.828790639852292,-0.10507964557602045
1743528214552470016,-0.00345554086379707,4.82044697491801e-06,-0.0034824307076633,0.07737190714820022,-9.822581123167902,-0.09855875489033324
1743528214558109952,3.51176349795423e-05,4.82044697491801e-06,8.22767106001265e-06,0.07731323793456774,-9.816349478560488,-0.09201462668480902
1743528214563790080,-0.00345554086379707,4.82044697491801e-06,-0.00173710158560425,0.07727718894387389,-9.8100360879411,-0.08935417896244048
1743528214569499904,-0.00345554086379707,-0.00174050882924348,0.00175355689134449,0.07729168942182811,-9.803607000259827,-0.09533592007894695
1743528214575239936,-0.0017102116253227,4.82044697491801e-06,-0.0034824307076633,0.07730626618940704,-9.797144087990977,-0.10134913221222573
1743528214580960000,-0.00345554086379707,4.82044697491801e-06,8.22767106001265e-06,0.07830787907022371,-9.792695792108924,-0.1064843044339981
1743528214586440192,-0.00520086986944079,4.82044697491801e-06,8.22767106001265e-06,0.0846118375014212,-9.79922130930735,-0.10676221005968617
1743528214591929856,3.51176349795423e-05,0.00175014964770526,8.22767106001265e-06,0.09092704075731652,-9.805758466540807,-0.10704061140565499
1743528214597440000,-0.00520086986944079,4.82044697491801e-06,8.22767106001265e-06,0.0972655564546585,-9.8123197555542,-0.107320040464401
1743528214602950144,-0.00345554086379707,-0.00174050882924348,8.22767106001265e-06,0.09097066333062992,-9.805803622272004,-0.10704253447647837
1743528214608480000,3.51176349795423e-05,4.82044697491801e-06,-0.0034824307076633,0.08465316295770278,-9.799264087187098,-0.10676403186370187
1743528214614020096,-0.0017102116253227,0.00349547900259495,8.22767106001265e-06,0.07832395039558726,-9.792712428276692,-0.10648501292720591
1743528214619579904,-0.00345554086379707,4.82044697491801e-06,8.22767106001265e-06,0.07733712596651444,-9.796999122856061,-0.10666570813039733
1743528214625139968,-0.00520086986944079,-0.00348583795130253,0.00175355689134449,0.07735912511249615,-9.803328241338052,-0.10693303451357357
1743528214630720000,-0.00345554086379707,0.00175014964770526,8.22767106001265e-06,0.07738120350068467,-9.809680157673922,-0.10720132382197221
1743528214636310016,-0.0017102116253227,4.82044697491801e-06,8.22767106001265e-06,0.07737311539802183,-9.807353223706118,-0.10710303985979432
1743528214641910016,-0.0017102116253227,4.82044697491801e-06,8.22767106001265e-06,0.07735110848965442,-9.801021871998396,-0.10683561915066112
1743528214647520000,-0.00345554086379707,4.82044697491801e-06,8.22767106001265e-06,0.07732906222969675,-9.79467919890223,-0.10656772025395198
1743528214653150208,-0.00345554086379707,4.82044697491801e-06,-0.00173710158560425,0.07733020186424251,-9.795007069905601,-0.10658156871795667
1743528214658780160,-0.00345554086379707,4.82044697491801e-06,0.00175355689134449,0.07735217822644014,-9.801329633530003,-0.10684861824008561
1743528214664429824,-0.00345554086379707,4.82044697491801e-06,-0.0034824307076633,0.07737423183256349,-9.80767442010608,-0.10711660640498312
1743528214670089984,-0.0017102116253227,4.82044697491801e-06,8.22767106001265e-06,0.077380063948986,-9.80935231050553,-0.10718747636469828
1743528214675760128,-0.00520086986944079,0.00175014964770526,-0.00173710158560425,0.07735807948321227,-9.803027415495471,-0.10692032837057883
1743528214681449984,-0.00345554086379707,4.82044697491801e-06,8.22767106001265e-06,0.07733601829089495,-9.796680446383748,-0.10665224802074869
1743528214687140096,-0.00520086986944079,-0.00348583795130253,8.22767106001265e-06,0.07732803481963041,-9.794383679316248,-0.10655523752418673
1743528214692850176,-0.00345554086379707,4.82044697491801e-06,8.22767106001265e-06,0.07737288959971811,-9.807288634006905,-0.10710030766139188
1743528214698400000,-0.0017102116253227,0.00175014964770526,8.22767106001265e-06,0.07741648582397202,-9.819831495605618,-0.10763008397261782
1743528214703949824,-0.00520086986944079,-0.00174050882924348,8.22767106001265e-06,0.07745653791798712,-9.831354684264642,-0.10811679216561744
1743528214709510144,-0.00345554086379707,4.82044697491801e-06,8.22767106001265e-06,0.0774345130362788,-9.825017859686763,-0.1078491436138209
1743528214715069952,3.51176349795423e-05,-0.00174050882924348,0.00175355689134449,0.07741248909899316,-9.818681306830705,-0.10758150653874286
1743528214720630016,-0.0017102116253227,-0.0052311671897769,8.22767106001265e-06,0.07739046516170751,-9.812344753974644,-0.10731386946366482
1743528214726200064,-0.00694619910791516,4.82044697491801e-06,8.22767106001265e-06,0.0773881673812866,-9.81168365478516,-0.10728594660759
1743528214731780096,-0.0017102116253227,-0.00174050882924348,8.22767106001265e-06,0.0773881673812866,-9.81168365478516,-0.10728594660759
1743528214737360128,-0.0017102116253227,4.82044697491801e-06,-0.00173710158560425,0.0773881673812866,-9.81168365478516,-0.10728594660759
1743528214742939904,-0.00345554086379707,4.82044697491801e-06,8.22767106001265e-06,0.0773881673812866,-9.81168365478516,-0.10728594660759
1743528214748529920,-0.00345554086379707,4.82044697491801e-06,-0.00173710158560425,0.0773881673812866,-9.81168365478516,-0.10728594660759
1743528214754129920,-0.00520086986944079,0.00698613747954369,8.22767106001265e-06,0.0773881673812866,-9.81168365478516,-0.10728594660759
1743528214759730176,-0.0017102116253227,-0.00174050882924348,8.22767106001265e-06,0.0773881673812866,-9.81168365478516,-0.10728594660759
1743528214765330176,3.51176349795423e-05,4.82044697491801e-06,8.22767106001265e-06,0.0773881673812866,-9.81168365478516,-0.10728594660759
1743528214770940160,-0.00345554086379707,0.00349547900259495,-0.00173710158560425,0.0773881673812866,-9.81168365478516,-0.10728594660759
1743528214776550144,-0.0017102116253227,-0.0052311671897769,0.00349888624623418,0.0773881673812866,-9.81168365478516,-0.10728594660759
1743528214782170112,-0.00520086986944079,-0.00348583795130253,-0.0034824307076633,0.0773881673812866,-9.81168365478516,-0.10728594660759
1743528214787790080,-0.0017102116253227,-0.00174050882924348,8.22767106001265e-06,0.0773881673812866,-9.81168365478516,-0.10728594660759
1743528214793420032,3.51176349795423e-05,4.82044697491801e-06,0.00175355689134449,0.0773881673812866,-9.81168365478516,-0.10728594660759
1743528214799049984,-0.00520086986944079,4.82044697491801e-06,8.22767106001265e-06,0.0773881673812866,-9.81168365478516,-0.10728594660759
1743528214804689920,-0.0017102116253227,-0.00348583795130253,8.22767106001265e-06,0.0773881673812866,-9.81168365478516,-0.10728594660759
1743528214810220032,-0.00694619910791516,-0.0052311671897769,8.22767106001265e-06,0.0773881673812866,-9.81168365478516,-0.10728594660759
1743528214815759872,-0.0017102116253227,4.82044697491801e-06,8.22767106001265e-06,0.0773881673812866,-9.81168365478516,-0.10728594660759
1743528214821289984,-0.00520086986944079,0.00349547900259495,8.22767106001265e-06,0.0773881673812866,-9.81168365478516,-0.10728594660759
1743528214826829824,-0.00345554086379707,-0.00174050882924348,-0.0034824307076633,0.0773881673812866,-9.81168365478516,-0.10728594660759
1743528214832369920,3.51176349795423e-05,4.82044697491801e-06,8.22767106001265e-06,0.0773881673812866,-9.81168365478516,-0.10728594660759
1743528214837910016,-0.00694619910791516,0.00349547900259495,-0.00173710158560425,0.0773881673812866,-9.81168365478516,-0.10728594660759
1743528214843450112,-0.00345554086379707,0.00175014964770526,8.22767106001265e-06,0.0773881673812866,-9.81168365478516,-0.10728594660759
1743528214848989952,-0.00345554086379707,-0.00174050882924348,-0.00173710158560425,0.07735912782859479,-9.81177333234073,-0.10230855753516944
1743528214854530048,-0.00520086986944079,4.82044697491801e-06,0.00175355689134449,0.07732256364079206,-9.811886246854886,-0.09604144348066733
1743528214860080128,-0.0017102116253227,4.82044697491801e-06,8.22767106001265e-06,0.07728593493813371,-9.81199936059851,-0.089763271558272
1743528214865619968,-0.00345554086379707,4.82044697491801e-06,8.22767106001265e-06,0.07729593832492924,-9.811968468963064,-0.09147785541056869
1743528214871170048,-0.0017102116253227,0.00349547900259495,-0.00522775994613767,0.07733252722731242,-9.811855478127374,-0.09774920555245009
1743528214876719872,-0.00345554086379707,4.82044697491801e-06,0.00524421548470855,0.07736911455793985,-9.811742492145452,-0.10402028629486668
1743528214882270208,-0.0017102116253227,-0.00174050882924348,8.22767106001265e-06,0.07737761240034934,-9.80864700395414,-0.10715768595234469
1743528214887820032,-0.00345554086379707,-0.00174050882924348,8.22767106001265e-06,0.07735559045482118,-9.802311326079762,-0.10689008251658234
1743528214893369856,-0.00345554086379707,4.82044697491801e-06,-0.00173710158560425,0.07733356850929304,-9.795975648205381,-0.10662247908082001
1743528214898930176,-0.00345554086379707,0.00349547900259495,-0.00173710158560425,0.07733280640443854,-9.79575648920699,-0.10661322127488095
1743528214904480000,-0.00520086986944079,4.82044697491801e-06,8.22767106001265e-06,0.07737682515082019,-9.808420912630407,-0.10714813202648728
1743528214910039808,-0.00345554086379707,-0.00348583795130253,8.22767106001265e-06,0.07742092331928914,-9.821108186203482,-0.10768400790617882
1743528214915590144,-0.00694619910791516,-0.00174050882924348,8.22767106001265e-06,0.07745407328179964,-9.830645578655123,-0.10808684166168182
1743528214921080064,-0.0017102116253227,4.82044697491801e-06,8.22767106001265e-06,0.07743203734204192,-9.824305572542828,-0.10781905873137004
1743528214926569984,-0.00345554086379707,4.82044697491801e-06,8.22767106001265e-06,0.07741000235924515,-9.817965841759763,-0.10755128743014283
1743528214932049920,-0.00520086986944079,0.00524080824106932,8.22767106001265e-06,0.0773881673812866,-9.81168365478516,-0.10728594660759
1743528214937540096,-0.00345554086379707,4.82044697491801e-06,-0.00173710158560425,0.0773881673812866,-9.81168365478516,-0.10728594660759
1743528214943020032,-0.0017102116253227,0.00349547900259495,8.22767106001265e-06,0.0773881673812866,-9.81168365478516,-0.10728594660759
1743528214948499968,-0.00345554086379707,4.82044697491801e-06,-0.0034824307076633,0.0773881673812866,-9.81168365478516,-0.10728594660759
1743528214953989888,-0.00520086986944079,4.82044697491801e-06,-0.00173710158560425,0.07736944193968291,-9.806296375722791,-0.107058401202807
1743528214959470080,-0.00345554086379707,4.82044697491801e-06,0.00175355689134449,0.07734742074371154,-9.799960913494674,-0.1067908068754119
1743528214964950016,-0.00345554086379707,4.82044697491801e-06,-0.00173710158560425,0.07732539954774016,-9.793625451266557,-0.1065232125480168
1743528214970429952,-0.00345554086379707,0.00175014964770526,-0.0034824307076633,0.07730854458461985,-9.79613391421313,-0.10228901642618221
1743528214975909888,-0.0017102116253227,4.82044697491801e-06,8.22767106001265e-06,0.07729399217582042,-9.802586026511811,-0.0962858527832663
1743528214981390080,-0.00520086986944079,4.82044697491801e-06,8.22767106001265e-06,0.07727943976702101,-9.809038138810493,-0.0902826891403504
1743528214986870016,3.51176349795423e-05,-0.00174050882924348,8.22767106001265e-06,0.07729223080669215,-9.811979918215615,-0.0908423855410782
1743528214992350208,-0.00345554086379707,4.82044697491801e-06,8.22767106001265e-06,0.07732881665363689,-9.811866936815479,-0.09711321197978562
1743528214997829888,-0.00694619910791516,0.00175014964770526,-0.00173710158560425,0.07736540090885455,-9.811753960330783,-0.10338376559593751
1743528215003299840,3.51176349795423e-05,4.82044697491801e-06,8.22767106001265e-06,0.07737988008443042,-9.809299412972239,-0.1071852421031192
1743528215008780032,-0.00345554086379707,0.00175014964770526,-0.00173710158560425,0.07735783338093051,-9.802956612269691,-0.1069173378166306
1743528215014259968,-0.00345554086379707,0.00349547900259495,-0.0034824307076633,0.0773357866774306,-9.796613811567145,-0.106649433530142
1743528215019730176,3.51176349795423e-05,-0.00348583795130253,8.22767106001265e-06,0.07593480627373313,-9.79162746954881,-0.10643831963048511
1743528215025209856,-0.00345554086379707,4.82044697491801e-06,8.22767106001265e-06,0.06961670608233075,-9.791425282575005,-0.1064274827724438
1743528215030680064,-0.00520086986944079,4.82044697491801e-06,8.22767106001265e-06,0.06330987643164573,-9.791223456272359,-0.10641666524572774
1743528215036109824,3.51176349795423e-05,4.82044697491801e-06,-0.0034824307076633,0.05783734554707239,-9.791445696470282,-0.10642406205543456
1743528215041529856,3.51176349795423e-05,0.00349547900259495,8.22767106001265e-06,0.06415224349903657,-9.797982538890427,-0.10670244999428381
1743528215046960128,-0.0017102116253227,0.00175014964770526,8.22767106001265e-06,0.07047908622784212,-9.804531745900551,-0.1069813645104159
1743528215052380160,-0.0017102116253227,-0.00174050882924348,8.22767106001265e-06,0.0767939841798063,-9.811068588320694,-0.10725975244926517
1743528215057799936,-0.00694619910791516,0.00175014964770526,8.22767106001265e-06,0.0773881673812866,-9.81168365478516,-0.10728594660759
1743528215063219968,-0.0017102116253227,4.82044697491801e-06,-0.0034824307076633,0.0773881673812866,-9.81168365478516,-0.10728594660759
1743528215068640000,-0.0017102116253227,0.00175014964770526,8.22767106001265e-06,0.0773881673812866,-9.81168365478516,-0.10728594660759
1743528215074050048,-0.0017102116253227,4.82044697491801e-06,0.00175355689134449,0.07736081242093462,-9.81176813012137,-0.10259729722729828
1743528215079469824,-0.0017102116253227,4.82044697491801e-06,8.22767106001265e-06,0.07732420440812005,-9.811881179972321,-0.09632267155106519
1743528215084880128,-0.00520086986944079,4.82044697491801e-06,0.00175355689134449,0.07728766241952248,-9.811994025932721,-0.09005936244777563
1743528215090290176,-0.00345554086379707,0.00349547900259495,-0.00173710158560425,0.07725967981598214,-9.808302710547823,-0.08733152853269294
1743528215095699968,-0.0017102116253227,4.82044697491801e-06,8.22767106001265e-06,0.0772376524770404,-9.801964123116361,-0.08706380220440245
1743528215101110016,-0.0017102116253227,4.82044697491801e-06,8.22767106001265e-06,0.07721562513809864,-9.7956255356849,-0.08679607587611197
1743528215106509824,-0.0017102116253227,4.82044697491801e-06,0.00349888624623418,0.07722841053851057,-9.794714282430887,-0.08946481221060129
1743528215111920128,-0.00520086986944079,4.82044697491801e-06,8.22767106001265e-06,0.07728712777654545,-9.80095122764409,-0.09601481515417867
1743528215117319936,-0.00345554086379707,4.82044697491801e-06,8.22767106001265e-06,0.07734573374888161,-9.807176354214416,-0.10255240622896646
1743528215122720000,-0.00520086986944079,4.82044697491801e-06,-0.00173710158560425,0.07738208818760389,-9.809934680660222,-0.10721207424630953
1743528215128120064,3.51176349795423e-05,-0.00174050882924348,-0.00173710158560425,0.0773600581623688,-9.803596678267306,-0.10694437262860693
1743528215133519872,-0.00520086986944079,4.82044697491801e-06,8.22767106001265e-06,0.0773380281371337,-9.79725867587439,-0.10667667101090432
1743528215138909952,-0.0017102116253227,4.82044697491801e-06,-0.00173710158560425,0.07732119620993938,-9.792416157824752,-0.10647213497016512
1743528215144280064,-0.0017102116253227,0.00175014964770526,0.00349888624623418,0.07734324581879572,-9.798759794393614,-0.10674007456158907
1743528215149640192,-0.00345554086379707,4.82044697491801e-06,-0.00173710158560425,0.07736525528939503,-9.805091883251277,-0.10700752640612102
1743528215155000064,-0.0017102116253227,4.82044697491801e-06,8.22767106001265e-06,0.07738726378101246,-9.811423690457447,-0.10727496635438731
1743528215160360192,-0.00345554086379707,0.00349547900259495,-0.00173710158560425,0.0773881673812866,-9.81168365478516,-0.10728594660759
1743528215165720064,3.51176349795423e-05,4.82044697491801e-06,8.22767106001265e-06,0.0773881673812866,-9.81168365478516,-0.10728594660759
1743528215171070208,-0.00520086986944079,4.82044697491801e-06,8.22767106001265e-06,0.0773881673812866,-9.81168365478516,-0.10728594660759
1743528215176420096,-0.0017102116253227,4.82044697491801e-06,0.00175355689134449,0.07735883166164485,-9.811774246939118,-0.10225779442060504
1743528215181769984,-0.0017102116253227,4.82044697491801e-06,0.00175355689134449,0.07732224556990026,-9.811887229095225,-0.09598692602312031
1743528215187119872,-0.00345554086379707,4.82044697491801e-06,0.00175355689134449,0.07728566110855191,-9.812000206216478,-0.08971633707609894
1743528215192460032,-0.00345554086379707,4.82044697491801e-06,8.22767106001265e-06,0.0772726684808731,-9.81204032897949,-0.0874893963336945
1743528215197809920,-0.00520086986944079,-0.00174050882924348,8.22767106001265e-06,0.0772726684808731,-9.81204032897949,-0.0874893963336945
1743528215203150080,-0.00520086986944079,4.82044697491801e-06,8.22767106001265e-06,0.0772726684808731,-9.81204032897949,-0.0874893963336945
1743528215208489984,-0.00520086986944079,4.82044697491801e-06,-0.00522775994613767,0.07729048996414854,-9.811985294142222,-0.090544004545156
1743528215213819904,-0.00520086986944079,4.82044697491801e-06,8.22767106001265e-06,0.07732702523054982,-9.811872468940754,-0.0968061614617478
1743528215219160064,-0.00345554086379707,-0.00348583795130253,8.22767106001265e-06,0.07736362913540114,-9.811759431775679,-0.10308008303169872
1743528215224489984,-0.00345554086379707,0.00175014964770526,8.22767106001265e-06,0.0773881673812866,-9.81168365478516,-0.10728594660759
1743528215229819904,-0.0017102116253227,4.82044697491801e-06,8.22767106001265e-06,0.0773881673812866,-9.81168365478516,-0.10728594660759
1743528215235150080,-0.00345554086379707,4.82044697491801e-06,8.22767106001265e-06,0.0773881673812866,-9.81168365478516,-0.10728594660759
1743528215240480000,-0.0017102116253227,-0.00174050882924348,8.22767106001265e-06,0.0773881673812866,-9.81168365478516,-0.10728594660759
1743528215245799936,-0.00520086986944079,4.82044697491801e-06,8.22767106001265e-06,0.0773881673812866,-9.81168365478516,-0.10728594660759
1743528215251100160,-0.00345554086379707,4.82044697491801e-06,8.22767106001265e-06,0.0773881673812866,-9.81168365478516,-0.10728594660759
1743528215256409856,-0.00520086986944079,4.82044697491801e-06,8.22767106001265e-06,0.0773881673812866,-9.81168365478516,-0.10728594660759
1743528215261709824,-0.00345554086379707,0.00349547900259495,8.22767106001265e-06,0.0773881673812866,-9.81168365478516,-0.10728594660759
1743528215267010048,-0.00345554086379707,0.00175014964770526,-0.00173710158560425,0.0773881673812866,-9.81168365478516,-0.10728594660759
1743528215272300032,-0.00345554086379707,4.82044697491801e-06,0.00175355689134449,0.0773881673812866,-9.81168365478516,-0.10728594660759
1743528215277590016,-0.0017102116253227,4.82044697491801e-06,0.00349888624623418,0.07736929931377849,-9.806255342482299,-0.10705666805974733
1743528215282880000,-0.0017102116253227,0.00524080824106932,-0.00871841888874769,0.07734726538315377,-9.799916216515147,-0.10678891898503505
1743528215288169984,-0.00345554086379707,0.00175014964770526,0.00175355689134449,0.07732523145252904,-9.793577090547993,-0.10652116991032279
1743528215293459968,-0.00520086986944079,0.00175014964770526,-0.00173710158560425,0.07290961995519157,-9.791530659867353,-0.10643313080572935
1743528215298739968,-0.00345554086379707,0.00175014964770526,-0.0034824307076633,0.06661747753414823,-9.791329303574113,-0.10642233847067183
1743528215304019968,-0.00345554086379707,4.82044697491801e-06,-0.00173710158560425,0.0603253351131049,-9.791127947280872,-0.10641154613561431
1743528215309299968,-0.00345554086379707,-0.00174050882924348,-0.00173710158560425,0.06087723166374899,-9.798015445133446,-0.10670264725290869
1743528215314569984,-0.00520086986944079,-0.00174050882924348,8.22767106001265e-06,0.06720899709768255,-9.810877583013474,-0.10724819492460883
1743528215319849984,-0.00345554086379707,-0.00174050882924348,8.22767106001265e-06,0.07355279357342868,-9.823764160352013,-0.10779477919611946
1743528215325120000,-0.00345554086379707,4.82044697491801e-06,8.22767106001265e-06,0.0798735007256576,-9.831773818061649,-0.10813537343361113
1743528215330390016,-0.0017102116253227,4.82044697491801e-06,-0.00522775994613767,0.08617641438211247,-9.83197551900986,-0.10814618424155487
1743528215335650048,-0.00345554086379707,4.82044697491801e-06,8.22767106001265e-06,0.09246735181826463,-9.83217683670437,-0.10815697450778972
1743528215340910080,-0.00520086986944079,4.82044697491801e-06,-0.00173710158560425,0.09733013183950946,-9.830898873992544,-0.10810476695991378
1743528215346179840,-0.00520086986944079,-0.00174050882924348,8.22767106001265e-06,0.09730806222625654,-9.824549179608828,-0.10783657482594114
1743528215351429888,-0.0017102116253227,-0.00872182566672564,0.00175355689134449,0.09728607648232651,-9.81822361544264,-0.10756940188031693
1743528215356689920,-0.00345554086379707,4.82044697491801e-06,8.22767106001265e-06,0.0972655564546585,-9.8123197555542,-0.107320040464401
1743528215361939968,-0.00345554086379707,-0.00174050882924348,8.22767106001265e-06,0.0972655564546585,-9.8123197555542,-0.107320040464401
1743528215367180032,-0.00520086986944079,4.82044697491801e-06,8.22767106001265e-06,0.0972655564546585,-9.8123197555542,-0.107320040464401
1743528215372420096,-0.00520086986944079,4.82044697491801e-06,8.22767106001265e-06,0.0972655564546585,-9.8123197555542,-0.107320040464401
1743528215377660160,-0.00345554086379707,4.82044697491801e-06,8.22767106001265e-06,0.09152957706287762,-9.812136197196065,-0.10731020206664502
1743528215382899968,-0.00345554086379707,4.82044697491801e-06,8.22767106001265e-06,0.08522851468108325,-9.811934555490907,-0.1072993944340224
1743528215388130048,-0.00345554086379707,4.82044697491801e-06,8.22767106001265e-06,0.07893949364154182,-9.811733299123434,-0.10728860745480635
1743528215393369856,-0.00520086986944079,4.82044697491801e-06,-0.00173710158560425,0.0773881673812866,-9.81168365478516,-0.10728594660759
1743528215398590208,-0.0017102116253227,4.82044697491801e-06,-0.00173710158560425,0.0773881673812866,-9.81168365478516,-0.10728594660759
1743528215403820032,-0.00345554086379707,4.82044697491801e-06,8.22767106001265e-06,0.0773881673812866,-9.81168365478516,-0.10728594660759
1743528215409039872,-0.00345554086379707,-0.00174050882924348,-0.0034824307076633,0.07737504098672064,-9.807907212439702,-0.10712643898004953
1743528215414269952,-0.0017102116253227,-0.00174050882924348,0.00175355689134449,0.0773529664243779,-9.80155639679343,-0.10685819616206978
1743528215419480064,-0.00520086986944079,0.00349547900259495,8.22767106001265e-06,0.07733097538631828,-9.795229610947425,-0.1065909683036949
1743528215424699904,-0.00345554086379707,4.82044697491801e-06,8.22767106001265e-06,0.0773282861928197,-9.794455934356176,-0.10655829010917618
1743528215429910016,-0.00345554086379707,4.82044697491801e-06,-0.00173710158560425,0.07735030298030104,-9.800790128268886,-0.10682583086605096
1743528215435129856,3.51176349795423e-05,4.82044697491801e-06,8.22767106001265e-06,0.07737236208450736,-9.807136496634477,-0.1070938858418434
1743528215440329984,-0.00520086986944079,4.82044697491801e-06,0.00175355689134449,0.07915566212777393,-9.811740216779462,-0.10728897822872387
1743528215445539840,-0.00345554086379707,4.82044697491801e-06,8.22767106001265e-06,0.08546253593578199,-9.811942044457368,-0.10729979582915124
1743528215450740224,-0.00345554086379707,0.00349547900259495,-0.00173710158560425,0.09175757641841349,-9.812143493454384,-0.10731059313296423
1743528215455940096,3.51176349795423e-05,4.82044697491801e-06,8.22767106001265e-06,0.09647371864713047,-9.81230868859246,-0.10653462848235436
1743528215461139968,-0.00345554086379707,4.82044697491801e-06,8.22767106001265e-06,0.09013843523473639,-9.812220144778976,-0.10025075638828351
1743528215466340096,-0.0017102116253227,4.82044697491801e-06,8.22767106001265e-06,0.08380286134625738,-9.812131596905713,-0.09396659617536378
1743528215471529984,-0.0017102116253227,4.82044697491801e-06,8.22767106001265e-06,0.0774797779294305,-9.812043223603013,-0.08769482507294588
1743528215476720128,3.51176349795423e-05,4.82044697491801e-06,-0.00173710158560425,0.07728673959200627,-9.805801609984588,-0.09329401493219912
1743528215481910016,3.51176349795423e-05,0.00175014964770526,-0.00173710158560425,0.07730128651198856,-9.799351931266832,-0.0992949143267778
1743528215487099904,-0.00520086986944079,0.00349547900259495,8.22767106001265e-06,0.07731583343197085,-9.792902252549077,-0.10529581372135649
1743528215492280064,-0.0017102116253227,-0.00174050882924348,8.22767106001265e-06,0.08243034678920001,-9.79696314797647,-0.10666604055794703
1743528215497459968,-0.00520086986944079,-0.0052311671897769,8.22767106001265e-06,0.08874977437565083,-9.803504678008698,-0.10694462813059215
1743528215502640128,3.51176349795423e-05,4.82044697491801e-06,8.22767106001265e-06,0.09506949283145572,-9.810046509133167,-0.10722322852601056
1743528215507810048,-0.00520086986944079,4.82044697491801e-06,0.00175355689134449,0.09316343076952116,-9.81218848251359,-0.10731300446559786
1743528215512989952,-0.00345554086379707,4.82044697491801e-06,8.22767106001265e-06,0.086858317035153,-9.811986711160195,-0.10730218988406287
1743528215518160128,-0.0017102116253227,4.82044697491801e-06,0.00175355689134449,0.08056510193206115,-9.811785320577558,-0.10729139571115548
1743528215523320064,-0.00520086986944079,-0.0052311671897769,0.00175355689134449,0.08050857058144831,-9.814913876787235,-0.10742351207587121
1743528215528489984,-0.0017102116253227,4.82044697491801e-06,8.22767106001265e-06,0.0868354470092657,-9.821463419948994,-0.10770243747836566
1743528215533649920,-0.00520086986944079,-0.00174050882924348,-0.0034824307076633,0.09314977763646531,-9.827999975775914,-0.10798080978921577
1743528215538810112,-0.00345554086379707,4.82044697491801e-06,8.22767106001265e-06,0.09519086635661995,-9.830163797839123,-0.10595550696920979
1743528215543970048,-0.0017102116253227,4.82044697491801e-06,-0.00173710158560425,0.088831867313826,-9.823731950064605,-0.09940205886747235
1743528215549120000,-0.00520086986944079,0.00349547900259495,8.22767106001265e-06,0.08248550223854303,-9.817312880992406,-0.09286163106182949
1743528215554279936,-0.00520086986944079,4.82044697491801e-06,8.22767106001265e-06,0.07727927495023545,-9.812019927424767,-0.0886217473984814
1743528215559429888,-0.00345554086379707,-0.00348583795130253,8.22767106001265e-06,0.07731585524714062,-9.811906963163807,-0.09489162255854214
1743528215564569856,-0.0017102116253227,4.82044697491801e-06,8.22767106001265e-06,0.07735236610922294,-9.811794213325749,-0.1011495965666787
1743528215569720064,-0.00345554086379707,4.82044697491801e-06,-0.00173710158560425,0.0773881673812866,-9.81168365478516,-0.10728594660759
1743528215574870016,-0.0017102116253227,4.82044697491801e-06,0.00175355689134449,0.0773881673812866,-9.81168365478516,-0.10728594660759
1743528215580019968,3.51176349795423e-05,0.00349547900259495,-0.00173710158560425,0.0773881673812866,-9.81168365478516,-0.10728594660759
1743528215585159936,-0.00694619910791516,4.82044697491801e-06,8.22767106001265e-06,0.0773881673812866,-9.81168365478516,-0.10728594660759
1743528215590300160,-0.00345554086379707,0.00175014964770526,8.22767106001265e-06,0.07736912648599181,-9.806205620209454,-0.10705456791335244
1743528215595439872,-0.0017102116253227,4.82044697491801e-06,8.22767106001265e-06,0.0773470847300575,-9.799864242913472,-0.1067867237480529
1743528215600569856,-0.00520086986944079,4.82044697491801e-06,-0.00173710158560425,0.07732508489415256,-9.793534925941692,-0.1065193889811566
1743528215605710080,-0.00520086986944079,-0.00174050882924348,-0.00173710158560425,0.07733419487937308,-9.796155853857611,-0.10663009052392629
1743528215610840064,-0.0017102116253227,-0.00174050882924348,8.22767106001265e-06,0.07735622223652329,-9.802493088646846,-0.10689775971993919
1743528215615959808,-0.00345554086379707,4.82044697491801e-06,8.22767106001265e-06,0.07737820557376562,-9.80881765898026,-0.10716489400051646
1743528215621090048,-0.00520086986944079,-0.00348583795130253,8.22767106001265e-06,0.0773881673812866,-9.81168365478516,-0.10728594660759
1743528215626210048,-0.00345554086379707,0.00175014964770526,8.22767106001265e-06,0.0773881673812866,-9.81168365478516,-0.10728594660759
1743528215631330048,3.51176349795423e-05,0.00175014964770526,8.22767106001265e-06,0.0773881673812866,-9.81168365478516,-0.10728594660759
1743528215636450048,-0.00345554086379707,0.00349547900259495,-0.00173710158560425,0.0773881673812866,-9.81168365478516,-0.10728594660759
1743528215641560064,-0.0017102116253227,-0.00174050882924348,8.22767106001265e-06,0.0773881673812866,-9.81168365478516,-0.10728594660759
1743528215646680064,-0.00345554086379707,4.82044697491801e-06,-0.00173710158560425,0.0773881673812866,-9.81168365478516,-0.10728594660759
1743528215651789824,-0.0017102116253227,4.82044697491801e-06,8.22767106001265e-06,0.0773881673812866,-9.81168365478516,-0.10728594660759
1743528215656889856,-0.00345554086379707,4.82044697491801e-06,8.22767106001265e-06,0.0773881673812866,-9.81168365478516,-0.10728594660759
1743528215661999872,-0.00345554086379707,0.00349547900259495,8.22767106001265e-06,0.0773881673812866,-9.81168365478516,-0.10728594660759
1743528215667099904,-0.0017102116253227,-0.00174050882924348,0.00175355689134449,0.0773881673812866,-9.81168365478516,-0.10728594660759
1743528215672199936,-0.0017102116253227,4.82044697491801e-06,-0.00173710158560425,0.0773881673812866,-9.81168365478516,-0.10728594660759
1743528215677309952,-0.00520086986944079,4.82044697491801e-06,8.22767106001265e-06,0.0773881673812866,-9.81168365478516,-0.10728594660759
1743528215682419968,-0.00345554086379707,4.82044697491801e-06,-0.0034824307076633,0.0773881673812866,-9.81168365478516,-0.10728594660759
1743528215687520000,-0.00345554086379707,0.00175014964770526,8.22767106001265e-06,0.0773881673812866,-9.81168365478516,-0.10728594660759
1743528215692620032,-0.00345554086379707,0.00175014964770526,8.22767106001265e-06,0.0773881673812866,-9.81168365478516,-0.10728594660759
1743528215697720064,-0.00520086986944079,4.82044697491801e-06,-0.00173710158560425,0.0773881673812866,-9.81168365478516,-0.10728594660759
1743528215702820096,-0.00345554086379707,0.00175014964770526,-0.0034824307076633,0.0773881673812866,-9.81168365478516,-0.10728594660759
1743528215707910144,-0.0017102116253227,0.00175014964770526,-0.00173710158560425,0.0773881673812866,-9.81168365478516,-0.10728594660759
1743528215712999936,-0.00345554086379707,0.00349547900259495,-0.00173710158560425,0.0773881673812866,-9.81168365478516,-0.10728594660759
1743528215718089984,3.51176349795423e-05,4.82044697491801e-06,-0.00173710158560425,0.08119124041639171,-9.815620572358139,-0.10745360812099787
1743528215723180032,-0.00520086986944079,0.00175014964770526,8.22767106001265e-06,0.08751705313368499,-9.822169014373372,-0.10773248662896397
1743528215728270080,-0.0017102116253227,-0.00174050882924348,8.22767106001265e-06,0.09384286585097826,-9.828717456388606,-0.10801136513693005
1743528215733350144,-0.00345554086379707,4.82044697491801e-06,-0.00173710158560425,0.09451219324573829,-9.829410339948344,-0.10804087296992061
1743528215738429952,-0.0017102116253227,4.82044697491801e-06,8.22767106001265e-06,0.08819479009287062,-9.822870603461945,-0.10776236520432148
1743528215743510016,-0.0017102116253227,4.82044697491801e-06,8.22767106001265e-06,0.08187738694000295,-9.816330866975546,-0.10748385743872232
1743528215748580096,-0.00345554086379707,4.82044697491801e-06,8.22767106001265e-06,0.0773881673812866,-9.81168365478516,-0.10728594660759
1743528215753649920,-0.00345554086379707,4.82044697491801e-06,8.22767106001265e-06,0.0773881673812866,-9.81168365478516,-0.10728594660759
1743528215758720000,-0.00520086986944079,4.82044697491801e-06,0.00175355689134449,0.0773881673812866,-9.81168365478516,-0.10728594660759
1743528215763789824,-0.00520086986944079,0.00175014964770526,8.22767106001265e-06,0.0773881673812866,-9.81168365478516,-0.10728594660759
1743528215768860160,-0.00345554086379707,0.00175014964770526,8.22767106001265e-06,0.0773881673812866,-9.81168365478516,-0.10728594660759
1743528215773920000,-0.00345554086379707,0.00175014964770526,-0.0034824307076633,0.0773881673812866,-9.81168365478516,-0.10728594660759
1743528215778990080,-0.00345554086379707,0.00175014964770526,-0.00173710158560425,0.0773881673812866,-9.81168365478516,-0.10728594660759
1743528215784059904,-0.0017102116253227,4.82044697491801e-06,-0.0034824307076633,0.07740958676675704,-9.817846270779631,-0.10754623710891716
1743528215789129984,-0.00345554086379707,0.00349547900259495,8.22767106001265e-06,0.07743161419842493,-9.824183829011687,-0.10781391664807578
1743528215794200064,3.51176349795423e-05,4.82044697491801e-06,-0.00173710158560425,0.07745364163009283,-9.830521387243744,-0.1080815961872344
1743528215799269888,-0.00520086986944079,0.00175014964770526,-0.0034824307076633,0.07743976046841483,-9.826527609313153,-0.10791291093073371
1743528215804329984,-0.0017102116253227,4.82044697491801e-06,8.22767106001265e-06,0.07741774797105411,-9.820194347861708,-0.1076454128747602
1743528215809390080,3.51176349795423e-05,0.00349547900259495,8.22767106001265e-06,0.07739573651084458,-9.813861384811199,-0.10737792742235133
1743528215814449920,-0.0017102116253227,4.82044697491801e-06,-0.00173710158560425,0.0773881673812866,-9.81168365478516,-0.10728594660759
1743528215819500032,-0.0017102116253227,4.82044697491801e-06,8.22767106001265e-06,0.0773881673812866,-9.81168365478516,-0.10728594660759
1743528215824559872,-0.00520086986944079,0.00349547900259495,-0.00173710158560425,0.0773881673812866,-9.81168365478516,-0.10728594660759
1743528215829609984,-0.00345554086379707,4.82044697491801e-06,8.22767106001265e-06,0.08053273076534019,-9.811784284660618,-0.10729134018787126
1743528215834650112,3.51176349795423e-05,4.82044697491801e-06,-0.00173710158560425,0.08682156003454633,-9.811985534891205,-0.10730212683816127
1743528215839699968,-0.00345554086379707,4.82044697491801e-06,8.22767106001265e-06,0.0931228842575964,-9.812187184975603,-0.10731293491989612
1743528215844739840,-0.00345554086379707,4.82044697491801e-06,8.22767106001265e-06,0.09511804945669068,-9.81225103270293,-0.10731635704321227
1743528215849790208,-0.00520086986944079,-0.00174050882924348,8.22767106001265e-06,0.08881246403515558,-9.812049246254967,-0.10730554165263569
1743528215854830080,-0.0017102116253227,4.82044697491801e-06,8.22767106001265e-06,0.08251967911277663,-9.811847869438639,-0.10729474821757769
1743528215859859968,-0.00345554086379707,-0.00174050882924348,-0.00173710158560425,0.0773881673812866,-9.81168365478516,-0.10728594660759
1743528215864900096,-0.0017102116253227,-0.00174050882924348,8.22767106001265e-06,0.0773881673812866,-9.81168365478516,-0.10728594660759
1743528215869929984,-0.00345554086379707,4.82044697491801e-06,-0.00173710158560425,0.0773881673812866,-9.81168365478516,-0.10728594660759
1743528215874959872,3.51176349795423e-05,4.82044697491801e-06,8.22767106001265e-06,0.07738715203294905,-9.811686790300294,-0.10711191556194614
1743528215880000000,-0.0017102116253227,0.00175014964770526,8.22767106001265e-06,0.07735058565500076,-9.811799711577878,-0.10084442611576055
1743528215885040128,3.51176349795423e-05,-0.00174050882924348,0.00349888624623418,0.07731402100677706,-9.81191262751387,-0.09457723314495084
1743528215890080000,-0.00694619910791516,-0.0052311671897769,8.22767106001265e-06,0.07727745635855336,-9.812025543449861,-0.08831004017414112
1743528215895119872,-0.0017102116253227,-0.0052311671897769,8.22767106001265e-06,0.07730448479965396,-9.811942076443517,-0.09294272404522148
1743528215900160000,-0.00520086986944079,4.82044697491801e-06,-0.00173710158560425,0.07734109668681458,-9.811829014628131,-0.09921801378566458
1743528215905189888,-0.00345554086379707,-0.00348583795130253,0.00175355689134449,0.07737763410324919,-9.811716182787109,-0.10548053921868863
1743528215910220032,-0.00345554086379707,-0.00174050882924348,8.22767106001265e-06,0.08184315996362981,-9.81190745954569,-0.10283082637483695
1743528215915250176,3.51176349795423e-05,4.82044697491801e-06,0.00175355689134449,0.08810299569471722,-9.812221933927155,-0.09657081127855832
1743528215920270080,-0.00520086986944079,4.82044697491801e-06,8.22767106001265e-06,0.09435007320528908,-9.812535767375904,-0.09032355476836083
1743528215925299968,-0.00345554086379707,-0.00348583795130253,0.00175355689134449,0.09366374051760967,-9.812564863338084,-0.0875175104316248
1743528215930320128,-0.00345554086379707,0.00524080824106932,-0.0034824307076633,0.08736803798558622,-9.812363393154675,-0.08750671199225923
1743528215935340032,-0.0017102116253227,4.82044697491801e-06,8.22767106001265e-06,0.08107263445159336,-9.812161932539567,-0.08749591406573748
1743528215940360192,-0.00520086986944079,-0.00174050882924348,-0.00173710158560425,0.0772726684808731,-9.81204032897949,-0.0874893963336945
1743528215945369856,3.51176349795423e-05,4.82044697491801e-06,8.22767106001265e-06,0.0772726684808731,-9.81204032897949,-0.0874893963336945
1743528215950390016,-0.0017102116253227,4.82044697491801e-06,-0.00173710158560425,0.0772726684808731,-9.81204032897949,-0.0874893963336945
1743528215955399936,-0.00520086986944079,-0.00174050882924348,8.22767106001265e-06,0.07728143470668111,-9.812013257842741,-0.08899193037773655
1743528215960410112,-0.00520086986944079,-0.00348583795130253,0.00175355689134449,0.07731803583307285,-9.811900229257876,-0.09526537571878553
1743528215965410048,-0.00520086986944079,0.00349547900259495,-0.00173710158560425,0.07735456206423119,-9.811787431958303,-0.1015259839917054
1743528215970419968,-0.0017102116253227,-0.00174050882924348,8.22767106001265e-06,0.0773881673812866,-9.81168365478516,-0.10728594660759
1743528215975419904,-0.00345554086379707,4.82044697491801e-06,8.22767106001265e-06,0.0773881673812866,-9.81168365478516,-0.10728594660759
1743528215980420096,-0.0017102116253227,4.82044697491801e-06,8.22767106001265e-06,0.0773881673812866,-9.81168365478516,-0.10728594660759
1743528215985420032,-0.0017102116253227,0.00175014964770526,0.00175355689134449,0.0773881673812866,-9.81168365478516,-0.10728594660759
1743528215990409984,-0.0017102116253227,4.82044697491801e-06,-0.0034824307076633,0.07736777606261036,-9.805817105601243,-0.10703815801277626
1743528215995399936,-0.00345554086379707,4.82044697491801e-06,8.22767106001265e-06,0.07734575263869795,-9.799481002398116,-0.10677053661217473
1743528216000390144,-0.0017102116253227,4.82044697491801e-06,-0.00173710158560425,0.0773237281624933,-9.793144596452228,-0.10650290242446435
1743528216005379840,-0.00345554086379707,4.82044697491801e-06,0.00175355689134449,0.07733552353042128,-9.796538104600993,-0.10664623585427287
1743528216010370048,-0.00345554086379707,4.82044697491801e-06,-0.00173710158560425,0.07735756200947182,-9.802878539142847,-0.10691404019995908
1743528216015350016,-0.00345554086379707,4.82044697491801e-06,8.22767106001265e-06,0.07737955626414969,-9.809206250404687,-0.10718130714562049
1743528216020339968,-0.00345554086379707,4.82044697491801e-06,8.22767106001265e-06,0.0773881673812866,-9.81168365478516,-0.10728594660759
1743528216025319936,-0.00520086986944079,4.82044697491801e-06,8.22767106001265e-06,0.0773881673812866,-9.81168365478516,-0.10728594660759
1743528216030289920,-0.0017102116253227,-0.00348583795130253,0.00175355689134449,0.0773881673812866,-9.81168365478516,-0.10728594660759
1743528216035269888,-0.00520086986944079,0.00175014964770526,8.22767106001265e-06,0.0773881673812866,-9.81168365478516,-0.10728594660759
1743528216040240128,-0.00345554086379707,4.82044697491801e-06,-0.00173710158560425,0.0773881673812866,-9.81168365478516,-0.10728594660759
1743528216045209856,-0.00520086986944079,4.82044697491801e-06,8.22767106001265e-06,0.0773881673812866,-9.81168365478516,-0.10728594660759
1743528216050179840,-0.00345554086379707,-0.00174050882924348,-0.00173710158560425,0.07738164685555761,-9.809807710149041,-0.10720671132450288
1743528216055150080,-0.0017102116253227,-0.00348583795130253,0.00175355689134449,0.07735959869994588,-9.803464491676287,-0.10693878939242923
1743528216060110080,-0.00694619910791516,-0.00174050882924348,-0.0034824307076633,0.07733759496640724,-9.797134053361638,-0.10667140726277077
1743528216065079808,-0.00345554086379707,-0.00174050882924348,8.22767106001265e-06,0.0773186087608337,-9.79167175292969,-0.10644069314003
1743528216070030080,-0.00345554086379707,0.00175014964770526,-0.00173710158560425,0.0773186087608337,-9.79167175292969,-0.10644069314003
1743528216074990080,-0.00345554086379707,4.82044697491801e-06,8.22767106001265e-06,0.0773186087608337,-9.79167175292969,-0.10644069314003
1743528216079950080,-0.00520086986944079,4.82044697491801e-06,8.22767106001265e-06,0.0773186087608337,-9.79167175292969,-0.10644069314003
1743528216084899840,-0.00345554086379707,-0.00348583795130253,-0.00173710158560425,0.0773402370067771,-9.797894164074524,-0.10670351246798496
1743528216089849856,-0.00345554086379707,4.82044697491801e-06,8.22767106001265e-06,0.07736226632596259,-9.804231963338115,-0.10697120550600502
1743528216094799872,-0.00520086986944079,-0.00174050882924348,-0.00173710158560425,0.07738429564514808,-9.810569762601707,-0.10723889854402506
1743528216099750144,3.51176349795423e-05,4.82044697491801e-06,8.22767106001265e-06,0.0773881673812866,-9.81168365478516,-0.10728594660759
1743528216104690176,-0.00520086986944079,-0.00174050882924348,8.22767106001265e-06,0.0773881673812866,-9.81168365478516,-0.10728594660759
1743528216109630208,-0.0017102116253227,4.82044697491801e-06,8.22767106001265e-06,0.0773881673812866,-9.81168365478516,-0.10728594660759
1743528216114579968,-0.00520086986944079,4.82044697491801e-06,-0.0034824307076633,0.07734899909764043,-9.807523199570095,-0.102916661168365
1743528216119510016,-0.00345554086379707,-0.0052311671897769,8.22767106001265e-06,0.07729048296663575,-9.801307615946289,-0.09638909203952352
1743528216124450048,-0.00345554086379707,4.82044697491801e-06,-0.0034824307076633,0.07723184798093033,-9.795079407575786,-0.08984826447643254
1743528216129380096,-0.0017102116253227,0.00175014964770526,-0.00173710158560425,0.07723297473553727,-9.795199091453766,-0.08997395577662189
1743528216134309888,-0.00520086986944079,4.82044697491801e-06,8.22767106001265e-06,0.07729160294236284,-9.80142657977163,-0.09651402714469334
1743528216139239936,-0.00345554086379707,-0.0052311671897769,8.22767106001265e-06,0.07735023114918842,-9.807654068089493,-0.10305409851276479
1743528216144169984,-0.00520086986944079,0.00524080824106932,8.22767106001265e-06,0.0773881673812866,-9.81168365478516,-0.10728594660759
1743528216149090048,-0.00345554086379707,4.82044697491801e-06,-0.00173710158560425,0.0773881673812866,-9.81168365478516,-0.10728594660759
1743528216154010112,-0.00520086986944079,0.00175014964770526,-0.00173710158560425,0.0773881673812866,-9.81168365478516,-0.10728594660759
1743528216158940160,-0.00520086986944079,4.82044697491801e-06,-0.00173710158560425,0.07738094781286792,-9.811705949661906,-0.10604851015889145
1743528216163849984,-0.00345554086379707,4.82044697491801e-06,8.22767106001265e-06,0.077344408173641,-9.811818788367173,-0.0997856037385184
1743528216168770048,-0.0017102116253227,-0.00174050882924348,8.22767106001265e-06,0.07730779401441565,-9.811931857198964,-0.09350992456541855
1743528216173680128,3.51176349795423e-05,4.82044697491801e-06,8.22767106001265e-06,0.07727323132045204,-9.81179078237731,-0.08772157907015014
1743528216178589952,-0.0017102116253227,0.00349547900259495,-0.00522775994613767,0.07728777475619686,-9.805342648468503,-0.0937210411461447
1743528216183500032,-0.00345554086379707,4.82044697491801e-06,8.22767106001265e-06,0.0773023181919417,-9.798894514559695,-0.09972050322213925
1743528216188410112,-0.00345554086379707,4.82044697491801e-06,8.22767106001265e-06,0.07731686162768653,-9.792446380650889,-0.1057199652981338
1743528216193309952,-0.0017102116253227,4.82044697491801e-06,8.22767106001265e-06,0.07730580926046185,-9.79734667691681,-0.10116063975925552
1743528216198220032,-0.00520086986944079,0.00175014964770526,-0.00173710158560425,0.07729122839362604,-9.803811406676228,-0.09514573659941097
1743528216203119872,-0.00694619910791516,-0.00174050882924348,8.22767106001265e-06,0.0772766772634323,-9.810262952078556,-0.08914310040726155
1743528216208009984,-0.00345554086379707,-0.00174050882924348,8.22767106001265e-06,0.07729911545628083,-9.811958657607622,-0.09202241678997111
1743528216212909824,-0.00520086986944079,4.82044697491801e-06,8.22767106001265e-06,0.07733572228808175,-9.81184561140378,-0.09829684004006518
1743528216217799936,-0.00345554086379707,4.82044697491801e-06,-0.00173710158560425,0.07737225431028089,-9.811732796220792,-0.10455844089932119
1743528216222700032,-0.00345554086379707,-0.00348583795130253,8.22767106001265e-06,0.07736743154699158,-9.811747689481287,-0.10373181765378438
1743528216227580160,3.51176349795423e-05,4.82044697491801e-06,8.22767106001265e-06,0.07733090335555082,-9.811860492834443,-0.09747087338779821
1743528216232470016,-0.00520086986944079,4.82044697491801e-06,8.22767106001265e-06,0.07729430020886086,-9.811973527658228,-0.09119708176695707
1743528216237360128,-0.00345554086379707,4.82044697491801e-06,8.22767106001265e-06,0.07728764939024689,-9.811994066168657,-0.0900571292255681
1743528216242240000,-0.00345554086379707,4.82044697491801e-06,8.22767106001265e-06,0.07732420073761401,-9.811881191307275,-0.09632204242509952
1743528216247119872,-0.0017102116253227,4.82044697491801e-06,8.22767106001265e-06,0.07736075208498114,-9.811768316445894,-0.10258695562463092
1743528216252000000,-0.00345554086379707,4.82044697491801e-06,8.22767106001265e-06,0.078969399470354,-9.81332053641771,-0.10735565648764094
1743528216256870144,-0.00345554086379707,0.00175014964770526,8.22767106001265e-06,0.08528134917746578,-9.819854627530951,-0.10763392383372662
1743528216261750016,-0.00345554086379707,4.82044697491801e-06,-0.00173710158560425,0.09160627753373544,-9.826402154061148,-0.10791276335393038
1743528216266619904,-0.00520086986944079,4.82044697491801e-06,0.00175355689134449,0.09733307900777677,-9.831746809911508,-0.10814058124164708
1743528216271490048,-0.00345554086379707,4.82044697491801e-06,-0.00173710158560425,0.09731103833610501,-9.825405442370371,-0.1078727408086455
1743528216276349952,-0.00345554086379707,4.82044697491801e-06,0.00175355689134449,0.09728904406130415,-9.819077423769572,-0.10760546419503096
1743528216281219840,-0.00520086986944079,4.82044697491801e-06,-0.0034824307076633,0.09726700446862939,-9.81273636666891,-0.10733763687410815
1743528216286080000,-0.00345554086379707,-0.00348583795130253,0.00175355689134449,0.09138275633132893,-9.812131498753029,-0.1073099502385513
1743528216290940160,-0.00520086986944079,4.82044697491801e-06,-0.00173710158560425,0.08508505228164542,-9.811929964518608,-0.10729914836616679
1743528216295800064,3.51176349795423e-05,4.82044697491801e-06,-0.00173710158560425,0.07878765717010515,-9.811728440170587,-0.10728834702367544
1743528216300649984,-0.0017102116253227,4.82044697491801e-06,-0.00173710158560425,0.08225106181169602,-9.811927951246572,-0.1024229128390211
1743528216305510144,-0.0017102116253227,-0.00174050882924348,-0.00173710158560425,0.08852035747093559,-9.812242900864957,-0.09615343754353177
1743528216310360064,-0.00520086986944079,-0.00174050882924348,-0.00173710158560425,0.09477642871450936,-9.812557186130455,-0.0898971870426319
1743528216315209984,-0.00520086986944079,4.82044697491801e-06,-0.00173710158560425,0.09322582109175488,-9.808614269133725,-0.08735049282447684
1743528216320059904,-0.0017102116253227,4.82044697491801e-06,-0.00173710158560425,0.08690290480502427,-9.802069122897956,-0.08707175124667367
1743528216324899840,-0.00520086986944079,0.00175014964770526,-0.00173710158560425,0.08059304340395107,-9.795537490384628,-0.08679358518486045
1743528216329740032,3.51176349795423e-05,-0.00174050882924348,0.00175355689134449,0.07722005390968754,-9.791976141177043,-0.08954617893821011
1743528216334579968,-0.0017102116253227,0.00349547900259495,-0.0034824307076633,0.07725663312273225,-9.79186316568757,-0.09581667731640413
1743528216339420160,-0.00520086986944079,4.82044697491801e-06,8.22767106001265e-06,0.07729321413770862,-9.7917501846328,-0.10208748458614388
1743528216344260096,-0.0017102116253227,4.82044697491801e-06,-0.00173710158560425,0.07539770841329609,-9.793550756091058,-0.10651935680230502
1743528216349090048,-0.00520086986944079,-0.00174050882924348,-0.0034824307076633,0.06912809021758727,-9.799683626245105,-0.10677610678362123
1743528216353920000,-0.00345554086379707,4.82044697491801e-06,0.00175355689134449,0.06285878149510991,-9.805816193675911,-0.10703284409155862
1743528216358750208,-0.00345554086379707,4.82044697491801e-06,-0.00173710158560425,0.05843683762535552,-9.811077189160901,-0.10725344114122225
1743528216363579904,3.51176349795423e-05,0.00524080824106932,-0.00173710158560425,0.06473642967359161,-9.811278783775808,-0.10726424624989228
1743528216368410112,-0.00345554086379707,0.00349547900259495,8.22767106001265e-06,0.07103633268994143,-9.811480388342073,-0.10727505189193721
1743528216373230080,-0.0017102116253227,0.00349547900259495,-0.00173710158560425,0.07732286407740024,-9.811681564999933,-0.10728583459886155
1743528216378050048,3.51176349795423e-05,0.00175014964770526,8.22767106001265e-06,0.07115434031454415,-9.811484164729727,-0.10727525429952138
1743528216382870016,-0.00520086986944079,0.00349547900259495,-0.00173710158560425,0.06485539254719945,-9.811282590732594,-0.10726445029592688
1743528216387680000,-0.0017102116253227,4.82044697491801e-06,8.22767106001265e-06,0.05856921965413558,-9.81108142554699,-0.10725366820389487
1743528216392499968,-0.00345554086379707,-0.00174050882924348,-0.00173710158560425,0.0627581042768845,-9.811215474954624,-0.10726085301097578
1743528216397309952,-0.0017102116253227,4.82044697491801e-06,8.22767106001265e-06,0.06905246640196314,-9.811416902205622,-0.10727164914924145
1743528216402120192,-0.00345554086379707,4.82044697491801e-06,-0.0034824307076633,0.07534682852704176,-9.811618329456621,-0.1072824452875071
1743528216406929920,-0.00345554086379707,0.00175014964770526,0.00175355689134449,0.0773881673812866,-9.81168365478516,-0.10728594660759
1743528216411730176,-0.00345554086379707,0.00175014964770526,8.22767106001265e-06,0.0773881673812866,-9.81168365478516,-0.10728594660759
1743528216416529920,-0.00694619910791516,4.82044697491801e-06,8.22767106001265e-06,0.0773881673812866,-9.81168365478516,-0.10728594660759
1743528216421329920,-0.00520086986944079,-0.00348583795130253,-0.00173710158560425,0.0773767808023814,-9.808407754572698,-0.10714758064747482
1743528216426130176,-0.00345554086379707,4.82044697491801e-06,8.22767106001265e-06,0.07735474215663078,-9.8020672720715,-0.10687977427610403
1743528216430929920,-0.00520086986944079,4.82044697491801e-06,-0.0034824307076633,0.07733270460553299,-9.795727104500143,-0.10661198120659443
1743528216435719936,-0.0017102116253227,0.00175014964770526,8.22767106001265e-06,0.07731338290729628,-9.79398874349425,-0.10428492261492824
1743528216440509952,-0.00694619910791516,4.82044697491801e-06,-0.00173710158560425,0.07729882889795053,-9.800441565428347,-0.09828109871420468
1743528216445300224,-0.00345554086379707,-0.00348583795130253,8.22767106001265e-06,0.07728427488860479,-9.806894387362442,-0.09227727481348111
1743528216450089984,-0.00520086986944079,-0.0052311671897769,8.22767106001265e-06,0.07728454701525338,-9.813302026557006,-0.0888143612866118
1743528216454870016,-0.00520086986944079,4.82044697491801e-06,8.22767106001265e-06,0.07734308996898745,-9.81952026026684,-0.09534440610987605
1743528216459660032,-0.0017102116253227,4.82044697491801e-06,8.22767106001265e-06,0.07740175556245701,-9.825751520352842,-0.10188813051230021
1743528216464440064,3.51176349795423e-05,0.00175014964770526,8.22767106001265e-06,0.07745578825803613,-9.831139011322744,-0.10810768263848881
1743528216469219840,-0.00345554086379707,4.82044697491801e-06,8.22767106001265e-06,0.07741169304150365,-9.818452587037218,-0.1075718426303902
1743528216473989888,-0.00345554086379707,0.00349547900259495,-0.00173710158560425,0.07736768800373603,-9.805792107653712,-0.1070370984642874
1743528216478769920,-0.00345554086379707,4.82044697491801e-06,8.22767106001265e-06,0.07732359058772147,-9.793105050565698,-0.10650123172833524
1743528216483539968,-0.00345554086379707,4.82044697491801e-06,8.22767106001265e-06,0.0773381593128278,-9.797296414908013,-0.10667826501477573
1743528216488310016,-0.0017102116253227,4.82044697491801e-06,8.22767106001265e-06,0.07736020575030643,-9.803639139076672,-0.10694616606866131
1743528216493079808,-0.0017102116253227,4.82044697491801e-06,8.22767106001265e-06,0.07738225108584885,-9.809981546220081,-0.1072140537321808
1743528216497839872,-0.00520086986944079,-0.00174050882924348,8.22767106001265e-06,0.0773881673812866,-9.81168365478516,-0.10728594660759
1743528216502599936,-0.00345554086379707,-0.00174050882924348,8.22767106001265e-06,0.0773881673812866,-9.81168365478516,-0.10728594660759
1743528216507360000,-0.00520086986944079,4.82044697491801e-06,8.22767106001265e-06,0.0773881673812866,-9.81168365478516,-0.10728594660759
1743528216512120064,-0.0017102116253227,4.82044697491801e-06,8.22767106001265e-06,0.0773881673812866,-9.81168365478516,-0.10728594660759
1743528216516880128,-0.00520086986944079,4.82044697491801e-06,8.22767106001265e-06,0.0773881673812866,-9.81168365478516,-0.10728594660759
1743528216521629952,-0.00345554086379707,0.00175014964770526,0.00175355689134449,0.0773881673812866,-9.81168365478516,-0.10728594660759
1743528216526390016,-0.0017102116253227,0.00175014964770526,-0.00173710158560425,0.07737897926647004,-9.809040249111664,-0.10717429565967777
1743528216531140096,3.51176349795423e-05,0.00349547900259495,-0.00173710158560425,0.07735693774792816,-9.802698940113103,-0.10690645437909313
1743528216535880192,-0.0017102116253227,4.82044697491801e-06,-0.00173710158560425,0.07733494269546966,-9.796370999331073,-0.10663917773906387
1743528216540630016,-0.00520086986944079,-0.00697649642825127,8.22767106001265e-06,0.07731483406018522,-9.79334534475999,-0.10488355260005605
1743528216545370112,-0.00520086986944079,-0.0052311671897769,8.22767106001265e-06,0.07730028767065383,-9.799794788291335,-0.09888287202722754
1743528216550110208,-0.00520086986944079,-0.00174050882924348,8.22767106001265e-06,0.07728574128112245,-9.80624423182268,-0.09288219145439904
1743528216554850048,-0.00345554086379707,-0.00348583795130253,8.22767106001265e-06,0.07727414402068397,-9.811386117797538,-0.08809808641850368
1743528216559590144,-0.0017102116253227,4.82044697491801e-06,8.22767106001265e-06,0.07728870966466606,-9.804928137406085,-0.09410670984258081
1743528216564320000,-0.00520086986944079,0.00524080824106932,8.22767106001265e-06,0.07730324453770869,-9.798483799948912,-0.10010263963033122
1743528216569050112,3.51176349795423e-05,0.00175014964770526,-0.00173710158560425,0.07731777941075132,-9.79203946249174,-0.10609856941808164
1743528216573779968,-0.00520086986944079,-0.00348583795130253,8.22767106001265e-06,0.07733938826152535,-9.797649981447444,-0.10669319879496438
1743528216578510080,3.51176349795423e-05,4.82044697491801e-06,-0.00173710158560425,0.07736142517360221,-9.803989965173521,-0.10696098409930194
1743528216583239936,-0.00345554086379707,4.82044697491801e-06,-0.0034824307076633,0.07738346208567908,-9.810329948899598,-0.1072287694036395
1743528216587960064,-0.00520086986944079,-0.00174050882924348,8.22767106001265e-06,0.0773881673812866,-9.81168365478516,-0.10728594660759
1743528216592679936,-0.00345554086379707,-0.00348583795130253,-0.00173710158560425,0.0773881673812866,-9.81168365478516,-0.10728594660759
1743528216597400064,-0.00520086986944079,4.82044697491801e-06,8.22767106001265e-06,0.0773881673812866,-9.81168365478516,-0.10728594660759
1743528216602119936,-0.0017102116253227,4.82044697491801e-06,0.00175355689134449,0.0773881673812866,-9.81168365478516,-0.10728594660759
1743528216606829824,3.51176349795423e-05,4.82044697491801e-06,8.22767106001265e-06,0.0773881673812866,-9.81168365478516,-0.10728594660759
1743528216611539968,-0.00694619910791516,0.00349547900259495,8.22767106001265e-06,0.0773881673812866,-9.81168365478516,-0.10728594660759
1743528216616250112,-0.00345554086379707,4.82044697491801e-06,8.22767106001265e-06,0.0773881673812866,-9.81168365478516,-0.10728594660759
1743528216620960000,-0.00520086986944079,4.82044697491801e-06,-0.0034824307076633,0.0773881673812866,-9.81168365478516,-0.10728594660759
1743528216625659904,-0.00520086986944079,4.82044697491801e-06,8.22767106001265e-06,0.0773881673812866,-9.81168365478516,-0.10728594660759
1743528216630369792,-0.00520086986944079,0.00175014964770526,-0.00173710158560425,0.0773881673812866,-9.81168365478516,-0.10728594660759
1743528216635070208,3.51176349795423e-05,4.82044697491801e-06,-0.00173710158560425,0.0773881673812866,-9.81168365478516,-0.10728594660759
1743528216639770112,-0.00345554086379707,0.00175014964770526,-0.00173710158560425,0.0773881673812866,-9.81168365478516,-0.10728594660759
1743528216644460032,-0.00520086986944079,-0.00174050882924348,8.22767106001265e-06,0.0773881673812866,-9.81168365478516,-0.10728594660759
1743528216649159936,-0.00520086986944079,4.82044697491801e-06,8.22767106001265e-06,0.0773881673812866,-9.81168365478516,-0.10728594660759
1743528216653850112,-0.00345554086379707,4.82044697491801e-06,-0.00173710158560425,0.0773881673812866,-9.81168365478516,-0.10728594660759
1743528216658540032,-0.00345554086379707,-0.00174050882924348,0.00349888624623418,0.0773881673812866,-9.81168365478516,-0.10728594660759
1743528216663229952,-0.00869152881205082,4.82044697491801e-06,-0.0034824307076633,0.08365582550361221,-9.805552700799836,-0.10702927684585624
1743528216667910144,3.51176349795423e-05,-0.00174050882924348,8.22767106001265e-06,0.08992380293197086,-9.799421434472878,-0.10677259400807369
1743528216672600064,-0.00345554086379707,4.82044697491801e-06,8.22767106001265e-06,0.09620487190768368,-9.793277362138816,-0.10651537505229067
1743528216677280000,-0.00520086986944079,4.82044697491801e-06,-0.00173710158560425,0.09189375643892762,-9.792138175487134,-0.10646569254996768
1743528216681960192,-0.00520086986944079,4.82044697491801e-06,8.22767106001265e-06,0.08559523912641284,-9.791936615227307,-0.10645488928266826
1743528216686629888,-0.0017102116253227,-0.00174050882924348,8.22767106001265e-06,0.0793105188716891,-9.79173549649021,-0.10644410968019276
1743528216691309824,-0.00345554086379707,4.82044697491801e-06,-0.0034824307076633,0.07302156446338846,-9.795875073434988,-0.10661666335203415
1743528216695980032,-0.0017102116253227,-0.00348583795130253,0.00175355689134449,0.06675001214252137,-9.802009835528558,-0.10687349253858787
1743528216700649984,-0.00520086986944079,-0.00348583795130253,-0.00173710158560425,0.0604787799948379,-9.808144284432315,-0.10713030861358416
1743528216705319936,-0.00520086986944079,-0.00348583795130253,-0.00173710158560425,0.06413015372894873,-9.81131956060268,-0.103957405880584
1743528216709979904,-0.00520086986944079,4.82044697491801e-06,-0.00173710158560425,0.07667085207091397,-9.811834888773767,-0.09771593466561723
1743528216714649856,-0.00345554086379707,4.82044697491801e-06,-0.00173710158560425,0.0892378559808737,-9.812351297905408,-0.09146137124151235
1743528216719310080,-0.00520086986944079,4.82044697491801e-06,8.22767106001265e-06,0.09483783691541468,-9.81256027108457,-0.08983577708217662
1743528216723970048,3.51176349795423e-05,4.82044697491801e-06,8.22767106001265e-06,0.08857330234569767,-9.81224556064829,-0.09610049115172227
1743528216728620032,-0.0017102116253227,4.82044697491801e-06,8.22767106001265e-06,0.08232190903550271,-9.811931510387394,-0.10235206358520493
1743528216733280000,-0.00520086986944079,4.82044697491801e-06,-0.00173710158560425,0.07872765060640816,-9.811726519887134,-0.10728824409993717
1743528216737929984,3.51176349795423e-05,0.00349547900259495,8.22767106001265e-06,0.08501986660418538,-9.81192787849718,-0.10729903655917115
1743528216742579968,-0.00694619910791516,4.82044697491801e-06,-0.00173710158560425,0.09131175999039585,-9.812129226783261,-0.10730982846505918
1743528216747229952,-0.00345554086379707,4.82044697491801e-06,8.22767106001265e-06,0.09692644895351248,-9.812308903699286,-0.10731945882450127
1743528216751869952,-0.0017102116253227,0.00524080824106932,-0.0034824307076633,0.0906353421090868,-9.812107580583506,-0.107308668267696
1743528216756519936,-0.0017102116253227,-0.00174050882924348,8.22767106001265e-06,0.08433033476652073,-9.811905812634777,-0.10729785386864509
1743528216761159936,-0.00520086986944079,4.82044697491801e-06,-0.0034824307076633,0.07803922792209504,-9.811704489518997,-0.10728706331183982
1743528216765799936,-0.0017102116253227,0.00349547900259495,-0.00173710158560425,0.0773881673812866,-9.81168365478516,-0.10728594660759
1743528216770430208,-0.00520086986944079,-0.00348583795130253,8.22767106001265e-06,0.0773881673812866,-9.81168365478516,-0.10728594660759
1743528216775069952,-0.00520086986944079,-0.00174050882924348,0.00349888624623418,0.0773881673812866,-9.81168365478516,-0.10728594660759
1743528216779699968,-0.00694619910791516,4.82044697491801e-06,8.22767106001265e-06,0.0773881673812866,-9.81168365478516,-0.10728594660759
1743528216784329984,-0.00345554086379707,0.00175014964770526,8.22767106001265e-06,0.0773881673812866,-9.81168365478516,-0.10728594660759
1743528216788960000,3.51176349795423e-05,0.00175014964770526,-0.0034824307076633,0.0773881673812866,-9.81168365478516,-0.10728594660759
1743528216793580032,-0.00869152881205082,-0.00348583795130253,0.00175355689134449,0.0773881673812866,-9.81168365478516,-0.10728594660759
1743528216798209792,3.51176349795423e-05,4.82044697491801e-06,8.22767106001265e-06,0.0773881673812866,-9.81168365478516,-0.10728594660759
1743528216802830080,3.51176349795423e-05,0.00175014964770526,-0.00173710158560425,0.0773881673812866,-9.81168365478516,-0.10728594660759
1743528216807450112,-0.00345554086379707,0.00175014964770526,8.22767106001265e-06,0.0773881673812866,-9.81168365478516,-0.10728594660759
1743528216812069888,3.51176349795423e-05,4.82044697491801e-06,0.00175355689134449,0.0773881673812866,-9.81168365478516,-0.10728594660759
1743528216816679936,-0.00694619910791516,4.82044697491801e-06,8.22767106001265e-06,0.0773881673812866,-9.81168365478516,-0.10728594660759
1743528216821289984,-0.0017102116253227,-0.00174050882924348,8.22767106001265e-06,0.0773881673812866,-9.81168365478516,-0.10728594660759
1743528216825900032,-0.00345554086379707,0.00175014964770526,8.22767106001265e-06,0.0773881673812866,-9.81168365478516,-0.10728594660759
1743528216830509824,-0.00345554086379707,4.82044697491801e-06,-0.00173710158560425,0.0773881673812866,-9.81168365478516,-0.10728594660759
1743528216835119872,-0.00345554086379707,-0.00697649642825127,-0.00173710158560425,0.0773881673812866,-9.81168365478516,-0.10728594660759
1743528216839750144,-0.00345554086379707,-0.00174050882924348,0.00175355689134449,0.0773881673812866,-9.81168365478516,-0.10728594660759
1743528216844770048,-0.00520086986944079,-0.0052311671897769,8.22767106001265e-06,0.0773881673812866,-9.81168365478516,-0.10728594660759
1743528216849790208,3.51176349795423e-05,0.00524080824106932,-0.00173710158560425,0.0773881673812866,-9.81168365478516,-0.10728594660759
1743528216854810112,-0.00694619910791516,0.00349547900259495,8.22767106001265e-06,0.07740918877484133,-9.817731763696845,-0.1075414006715972
1743528216859830016,-0.00345554086379707,4.82044697491801e-06,8.22767106001265e-06,0.077431218810245,-9.824070071055141,-0.10780911185161172
1743528216864849920,-0.00345554086379707,0.00175014964770526,8.22767106001265e-06,0.07745324989195765,-9.83040867944917,-0.10807683574647688
1743528216869869824,-0.00520086986944079,-0.00174050882924348,8.22767106001265e-06,0.07744017207611768,-9.826646033822414,-0.10791791282845259
1743528216874889984,-0.00345554086379707,4.82044697491801e-06,-0.00173710158560425,0.07741814099440504,-9.820307425428386,-0.10765018893358744
1743528216879909888,-0.00345554086379707,4.82044697491801e-06,0.00175355689134449,0.07739611095900137,-9.813969118070089,-0.10738247775357292
1743528216884929792,-0.00345554086379707,-0.0052311671897769,8.22767106001265e-06,0.08141618323231548,-9.811812556220408,-0.1072928554926126
1743528216889949952,-0.00345554086379707,4.82044697491801e-06,8.22767106001265e-06,0.08771596053003991,-9.812014156801302,-0.10730366092104875
1743528216894969856,-0.00345554086379707,4.82044697491801e-06,-0.00173710158560425,0.09401543863621337,-9.812215747807702,-0.10731446583630914
1743528216899980032,-0.0017102116253227,-0.00348583795130253,8.22767106001265e-06,0.0942391365304046,-9.815280311825855,-0.10744398133757725
1743528216904999936,-0.00520086986944079,4.82044697491801e-06,-0.00173710158560425,0.08796179720372092,-9.82142103808925,-0.10770105700349449
1743528216910020096,-0.0017102116253227,4.82044697491801e-06,8.22767106001265e-06,0.08168415973696,-9.82756205600433,-0.10795814487913227
1743528216915040000,-0.00520086986944079,0.00175014964770526,-0.0034824307076633,0.07745052389225253,-9.829624376397764,-0.10804370912709543
1743528216920049920,-0.0017102116253227,4.82044697491801e-06,0.00175355689134449,0.07742852390291545,-9.82329471365585,-0.10777636306986868
1743528216925070080,-0.00345554086379707,4.82044697491801e-06,-0.00173710158560425,0.07740647889385051,-9.81695209819429,-0.10750846992843403
1743528216930089984,3.51176349795423e-05,0.00349547900259495,8.22767106001265e-06,0.0773881673812866,-9.81168365478516,-0.10728594660759
1743528216935100160,-0.00869152881205082,0.00175014964770526,-0.00173710158560425,0.0773881673812866,-9.81168365478516,-0.10728594660759
1743528216940120064,-0.00345554086379707,-0.00348583795130253,0.00175355689134449,0.0773881673812866,-9.81168365478516,-0.10728594660759
1743528216945129984,-0.00520086986944079,-0.00174050882924348,0.00175355689134449,0.07732533808949998,-9.811681644171331,-0.10728583884230612
1743528216950149888,-0.00520086986944079,0.00175014964770526,8.22767106001265e-06,0.07102595362013256,-9.811480056199203,-0.10727503408967695
1743528216955159808,-0.0017102116253227,4.82044697491801e-06,-0.00522775994613767,0.06473913500912247,-9.811278870349838,-0.10726425089010456
1743528216960179968,-0.00520086986944079,0.00349547900259495,8.22767106001265e-06,0.0584394513526513,-9.811077272803358,-0.10725344562430737
1743528216965189888,-0.00345554086379707,4.82044697491801e-06,8.22767106001265e-06,0.06287238656592496,-9.811219132127006,-0.10726104902883578
1743528216970200064,-0.0017102116253227,4.82044697491801e-06,-0.00173710158560425,0.06916357614753635,-9.81142045785275,-0.10727183972553052
1743528216975219968,-0.00345554086379707,4.82044697491801e-06,8.22767106001265e-06,0.0754670403447776,-9.811622176381139,-0.10728265147574027
1743528216980230144,-0.0017102116253227,4.82044697491801e-06,-0.00173710158560425,0.0773881673812866,-9.81168365478516,-0.10728594660759
1743528216985240064,-0.00345554086379707,-0.00348583795130253,8.22767106001265e-06,0.0773881673812866,-9.81168365478516,-0.10728594660759
1743528216990249984,3.51176349795423e-05,4.82044697491801e-06,8.22767106001265e-06,0.0773881673812866,-9.81168365478516,-0.10728594660759
1743528216995269888,-0.0017102116253227,4.82044697491801e-06,-0.0034824307076633,0.07736852765959136,-9.811744304556607,-0.10391969172106676
1743528217000279808,-0.00694619910791516,0.00175014964770526,-0.00173710158560425,0.07733195144121133,-9.811857256222602,-0.09765051562157967
1743528217005289984,-0.00520086986944079,4.82044697491801e-06,8.22767106001265e-06,0.07729537348218415,-9.81197021326392,-0.09138104117458869
1743528217010299904,-0.00520086986944079,4.82044697491801e-06,8.22767106001265e-06,0.0772726684808731,-9.81204032897949,-0.0874893963336945
1743528217015310080,-0.00345554086379707,4.82044697491801e-06,8.22767106001265e-06,0.0772726684808731,-9.81204032897949,-0.0874893963336945
1743528217020320000,-0.00520086986944079,4.82044697491801e-06,8.22767106001265e-06,0.0772726684808731,-9.81204032897949,-0.0874893963336945
1743528217025330176,-0.0017102116253227,0.00175014964770526,8.22767106001265e-06,0.07726778866116332,-9.810636111976159,-0.0874300856644815
1743528217030339840,-0.00520086986944079,0.00349547900259495,8.22767106001265e-06,0.0772457655401235,-9.804298738288228,-0.08716241060172966
1743528217035350016,-0.00694619910791516,4.82044697491801e-06,8.22767106001265e-06,0.07722374137101243,-9.797961063007296,-0.08689472280043202
1743528217040359936,-0.00345554086379707,4.82044697491801e-06,8.22767106001265e-06,0.0772068672216538,-9.792425951244965,-0.08706162034482516
1743528217045370112,-0.00520086986944079,4.82044697491801e-06,0.00175355689134449,0.07726546934979205,-9.798650669484578,-0.09359878259311379
1743528217050380032,-0.00345554086379707,0.00349547900259495,8.22767106001265e-06,0.0773240686892119,-9.804875091506513,-0.10013563375535273
1743528217055389952,-0.00345554086379707,4.82044697491801e-06,-0.00173710158560425,0.07738266802863177,-9.811099513528449,-0.10667248491759165
1743528217060400128,-0.00520086986944079,4.82044697491801e-06,8.22767106001265e-06,0.0773881673812866,-9.81168365478516,-0.10728594660759
1743528217065399808,-0.00345554086379707,-0.00348583795130253,8.22767106001265e-06,0.0773881673812866,-9.81168365478516,-0.10728594660759
1743528217070409984,-0.00520086986944079,4.82044697491801e-06,8.22767106001265e-06,0.0773881673812866,-9.81168365478516,-0.10728594660759
1743528217075419904,-0.0017102116253227,0.00349547900259495,-0.00173710158560425,0.0773881673812866,-9.81168365478516,-0.10728594660759
1743528217080430080,-0.00520086986944079,0.00349547900259495,8.22767106001265e-06,0.0773881673812866,-9.81168365478516,-0.10728594660759
1743528217085430016,-0.0017102116253227,-0.00174050882924348,8.22767106001265e-06,0.0773881673812866,-9.81168365478516,-0.10728594660759
1743528217090439936,-0.0017102116253227,4.82044697491801e-06,8.22767106001265e-06,0.07736654355982693,-9.811750431690134,-0.10357961635589479
1743528217095439872,-0.00345554086379707,4.82044697491801e-06,8.22767106001265e-06,0.0773300173286686,-9.811863228989706,-0.09731900808297492
1743528217100450048,-0.00520086986944079,4.82044697491801e-06,8.22767106001265e-06,0.07729341620227685,-9.811976257574573,-0.09104556274192593
1743528217105459968,3.51176349795423e-05,0.00524080824106932,-0.00173710158560425,0.07728853019043494,-9.81199134615404,-0.09020809867325573
1743528217110460160,-0.00345554086379707,0.00175014964770526,-0.0034824307076633,0.0773250813137105,-9.811878471984679,-0.09647297346341925
1743528217115469824,-0.0017102116253227,0.00175014964770526,8.22767106001265e-06,0.07736170389397894,-9.811765377147717,-0.10275009600612886
1743528217120470016,-0.00694619910791516,4.82044697491801e-06,-0.0034824307076633,0.0773881673812866,-9.81168365478516,-0.10728594660759
1743528217125469952,-0.0017102116253227,4.82044697491801e-06,8.22767106001265e-06,0.0773881673812866,-9.81168365478516,-0.10728594660759
1743528217130480128,-0.00520086986944079,4.82044697491801e-06,8.22767106001265e-06,0.0773881673812866,-9.81168365478516,-0.10728594660759
1743528217135479808,-0.0017102116253227,4.82044697491801e-06,-0.0034824307076633,0.0773881673812866,-9.81168365478516,-0.10728594660759
1743528217140489984,-0.0017102116253227,-0.00348583795130253,0.00175355689134449,0.0773881673812866,-9.81168365478516,-0.10728594660759
1743528217145489920,-0.00520086986944079,-0.00174050882924348,-0.00173710158560425,0.0773881673812866,-9.81168365478516,-0.10728594660759
1743528217150490112,-0.00520086986944079,-0.00348583795130253,8.22767106001265e-06,0.0773881673812866,-9.81168365478516,-0.10728594660759
1743528217155490048,-0.0017102116253227,-0.00174050882924348,8.22767106001265e-06,0.07736702293864968,-9.805600433063919,-0.10702900629822058
1743528217160489984,3.51176349795423e-05,4.82044697491801e-06,8.22767106001265e-06,0.07734499625223097,-9.799263391243043,-0.10676134525271613
1743528217165499904,-0.0017102116253227,4.82044697491801e-06,8.22767106001265e-06,0.0773229265039134,-9.792913960583972,-0.10649316093318606
1743528217170500096,-0.0017102116253227,4.82044697491801e-06,8.22767106001265e-06,0.07733631770417271,-9.796766587096283,-0.1066558863923784
1743528217175500032,-0.00345554086379707,0.00349547900259495,-0.00173710158560425,0.0773583433403012,-9.803103326750373,-0.10692353467510173
1743528217180499968,-0.0017102116253227,0.00175014964770526,8.22767106001265e-06,0.07738037002671991,-9.809440368571247,-0.10719119572060616
1743528217185499904,-0.00520086986944079,-0.00174050882924348,0.00175355689134449,0.08143048069549007,-9.81188672784231,-0.10324351746761541
1743528217190500096,-0.00520086986944079,4.82044697491801e-06,0.00175355689134449,0.08768835290523946,-9.81220110358266,-0.09698546594893621
1743528217195499776,-0.0017102116253227,-0.0052311671897769,8.22767106001265e-06,0.09394592672321843,-9.812515464332753,-0.09072771283057739
1743528217200499968,-0.00345554086379707,4.82044697491801e-06,8.22767106001265e-06,0.09408362285579258,-9.809428584848348,-0.09044855976693347
1743528217205499904,-0.0017102116253227,4.82044697491801e-06,8.22767106001265e-06,0.08780003852305412,-9.802773263820214,-0.09644246577506915
1743528217210500096,-0.00345554086379707,4.82044697491801e-06,8.22767106001265e-06,0.08151615455823645,-9.796117625433773,-0.1024366576020026
1743528217215500032,3.51176349795423e-05,-0.00174050882924348,-0.00173710158560425,0.07733323510238753,-9.795879827847752,-0.10661843076313214
1743528217220489984,-0.00345554086379707,-0.00174050882924348,8.22767106001265e-06,0.07737719815026634,-9.80852822652076,-0.10715266467292744
1743528217225490176,3.51176349795423e-05,4.82044697491801e-06,8.22767106001265e-06,0.07742125152310375,-9.821202612156494,-0.1076879962012483
1743528217230489856,-0.00520086986944079,4.82044697491801e-06,8.22767106001265e-06,0.07745393279382988,-9.830605158568812,-0.10808513443790885
1743528217235490048,3.51176349795423e-05,4.82044697491801e-06,8.22767106001265e-06,0.0774318781344785,-9.824259766603243,-0.10781712402523401
1743528217240480000,-0.00694619910791516,4.82044697491801e-06,-0.0034824307076633,0.07740986869496079,-9.817927384930185,-0.107549663128473
1743528217245479936,-0.0017102116253227,4.82044697491801e-06,0.00175355689134449,0.0773881673812866,-9.81168365478516,-0.10728594660759
1743528217250479872,-0.0017102116253227,-0.00174050882924348,8.22767106001265e-06,0.0773881673812866,-9.81168365478516,-0.10728594660759
1743528217255470080,3.51176349795423e-05,0.00175014964770526,-0.00173710158560425,0.0773881673812866,-9.81168365478516,-0.10728594660759
1743528217260470016,-0.00694619910791516,-0.00348583795130253,8.22767106001265e-06,0.0773881673812866,-9.81168365478516,-0.10728594660759
1743528217265459968,-0.00345554086379707,-0.00348583795130253,8.22767106001265e-06,0.0773881673812866,-9.81168365478516,-0.10728594660759
1743528217270459904,-0.00345554086379707,-0.00174050882924348,-0.00173710158560425,0.0773881673812866,-9.81168365478516,-0.10728594660759
1743528217275450112,-0.00520086986944079,-0.00174050882924348,-0.00173710158560425,0.0773881673812866,-9.81168365478516,-0.10728594660759
1743528217280450048,-0.00345554086379707,0.00349547900259495,-0.00173710158560425,0.07297634481454444,-9.811542471091904,-0.1072783794156351
1743528217285440000,3.51176349795423e-05,4.82044697491801e-06,-0.00173710158560425,0.06668692076309382,-9.811341201865273,-0.10726759174719125
1743528217290440192,-0.00345554086379707,0.00175014964770526,8.22767106001265e-06,0.06038457467837777,-9.811139519117848,-0.1072567819147767
1743528217295429888,-0.0017102116253227,4.82044697491801e-06,0.00175355689134449,0.06089680302554633,-9.80777728388426,-0.10370843151467536
1743528217300420096,-0.0017102116253227,4.82044697491801e-06,8.22767106001265e-06,0.06713202872591198,-9.80175522213346,-0.09718337375718562
1743528217305420032,-0.00345554086379707,0.00175014964770526,-0.00173710158560425,0.07337946867633567,-9.795721363701732,-0.09064553399453311
1743528217310409984,-0.00520086986944079,4.82044697491801e-06,8.22767106001265e-06,0.07722578549811755,-9.794435450631886,-0.08917198470582298
1743528217315399936,-0.00520086986944079,4.82044697491801e-06,8.22767106001265e-06,0.07728437308983657,-9.800658624813,-0.09570752539301731
1743528217320389888,-0.0017102116253227,4.82044697491801e-06,8.22767106001265e-06,0.07734296348090537,-9.806882096341058,-0.10224337835221162
1743528217325380096,-0.0017102116253227,4.82044697491801e-06,-0.00173710158560425,0.07738313851513084,-9.81023685817968,-0.10722483748080795
1743528217330380032,-0.00345554086379707,0.00175014964770526,0.00175355689134449,0.0773610849074035,-9.803892071142139,-0.10695684929641933
1743528217335369984,-0.00520086986944079,4.82044697491801e-06,-0.00173710158560425,0.07733907441626175,-9.797559688676081,-0.10668938505059158
1743528217340359936,-0.0017102116253227,4.82044697491801e-06,0.00349888624623418,0.07732015448455609,-9.792116455128019,-0.10645947626608589
1743528217345350144,-0.0017102116253227,4.82044697491801e-06,-0.00173710158560425,0.07734219262999863,-9.798456793691392,-0.10672727655787728
1743528217350339840,-0.0017102116253227,4.82044697491801e-06,8.22767106001265e-06,0.07736422972249583,-9.804796829324113,-0.10699506405462367
1743528217355330048,-0.00520086986944079,0.00524080824106932,-0.00522775994613767,0.07738626786793837,-9.811137167887486,-0.10726286434641505
1743528217360320000,-0.00345554086379707,4.82044697491801e-06,0.00175355689134449,0.07735472759973484,-9.81178692076519,-0.10155435683255934
1743528217365309952,-0.00520086986944079,4.82044697491801e-06,8.22767106001265e-06,0.07731813546399834,-9.811899921585855,-0.09528245249283245
1743528217370300160,-0.00345554086379707,4.82044697491801e-06,8.22767106001265e-06,0.07728154157986793,-9.812012927805766,-0.08901024847780621
1743528217375279872,-0.00345554086379707,-0.00348583795130253,8.22767106001265e-06,0.07731693536417375,-9.816742206975256,-0.09242704832598232
1743528217380270080,-0.00345554086379707,4.82044697491801e-06,-0.00173710158560425,0.07737553047342512,-9.822965980466996,-0.09896291072154166
1743528217385260032,3.51176349795423e-05,4.82044697491801e-06,8.22767106001265e-06,0.07743412558267648,-9.829189753958735,-0.10549877311710099
1743528217390249984,-0.00520086986944079,-0.00174050882924348,8.22767106001265e-06,0.07744455666614859,-9.827907533350071,-0.1079711948023371
1743528217395240192,-0.00345554086379707,-0.00174050882924348,8.22767106001265e-06,0.07742250416643519,-9.821562762738445,-0.10770321063379777
1743528217400219904,-0.00520086986944079,-0.00348583795130253,8.22767106001265e-06,0.07740049697286071,-9.81523102725039,-0.10743577702996207
1743528217405210112,3.51176349795423e-05,0.00175014964770526,0.00175355689134449,0.0773881673812866,-9.81168365478516,-0.10728594660759
1743528217410200064,-0.0104368580505252,0.00349547900259495,-0.00522775994613767,0.0773881673812866,-9.81168365478516,-0.10728594660759
1743528217415180032,3.51176349795423e-05,4.82044697491801e-06,8.22767106001265e-06,0.0773881673812866,-9.81168365478516,-0.10728594660759
1743528217420169984,-0.00520086986944079,4.82044697491801e-06,-0.00173710158560425,0.07739439855583533,-9.813476438989515,-0.10736166846008602
1743528217425149952,-0.00345554086379707,4.82044697491801e-06,-0.00522775994613767,0.0774164057494098,-9.819808174477572,-0.10762910206392172
1743528217430139904,-0.00520086986944079,4.82044697491801e-06,8.22767106001265e-06,0.07743845824912321,-9.826152945089197,-0.10789708623246105
1743528217435120128,-0.00345554086379707,4.82044697491801e-06,8.22767106001265e-06,0.0782335712919341,-9.83094715060163,-0.10731931902095107
1743528217440110080,-0.00345554086379707,-0.00174050882924348,0.00175355689134449,0.08447642637785593,-9.824917412254905,-0.10078626161375134
1743528217445090048,-0.00345554086379707,4.82044697491801e-06,8.22767106001265e-06,0.09070705168411687,-9.818899486191242,-0.09426600249379397
1743528217450080000,-0.0017102116253227,-0.00174050882924348,-0.0034824307076633,0.0969499067700387,-9.812869747844514,-0.08773294508659424
1743528217455059968,-0.00694619910791516,-0.00348583795130253,8.22767106001265e-06,0.0910945210244437,-9.812372218713866,-0.09357920023164439
1743528217460040192,-0.0017102116253227,4.82044697491801e-06,8.22767106001265e-06,0.08483800190516341,-9.812057910948507,-0.09983589862108389
1743528217465029888,3.51176349795423e-05,0.00175014964770526,8.22767106001265e-06,0.07856920218056475,-9.811742986244314,-0.10610487796772214
1743528217470010112,-0.00345554086379707,4.82044697491801e-06,8.22767106001265e-06,0.0773881673812866,-9.81168365478516,-0.10728594660759
1743528217474989824,3.51176349795423e-05,4.82044697491801e-06,8.22767106001265e-06,0.0773881673812866,-9.81168365478516,-0.10728594660759
1743528217479970048,-0.0017102116253227,4.82044697491801e-06,-0.0034824307076633,0.0773881673812866,-9.81168365478516,-0.10728594660759
1743528217484960000,-0.00694619910791516,0.00175014964770526,8.22767106001265e-06,0.07326849735796169,-9.81155182032897,-0.10727888051792167
1743528217489939968,3.51176349795423e-05,0.00349547900259495,8.22767106001265e-06,0.06697571194204922,-9.811350443534586,-0.10726808708403968
1743528217494919936,-0.00520086986944079,0.00175014964770526,8.22767106001265e-06,0.060682625248527904,-9.81114905709895,-0.10725729313340401
1743528217499900160,-0.0017102116253227,4.82044697491801e-06,8.22767106001265e-06,0.06063205791890033,-9.81114743888284,-0.10725720639993182
1743528217504879872,-0.0017102116253227,4.82044697491801e-06,8.22767106001265e-06,0.06692493871472997,-9.811348818729497,-0.10726799999741018
1743528217509860096,-0.00520086986944079,-0.00348583795130253,-0.00173710158560425,0.07321812079273494,-9.811550208217554,-0.10727879411165003
1743528217514839808,-0.0017102116253227,0.00175014964770526,8.22767106001265e-06,0.0773881673812866,-9.81168365478516,-0.10728594660759
1743528217519820032,-0.00520086986944079,-0.00174050882924348,8.22767106001265e-06,0.0773881673812866,-9.81168365478516,-0.10728594660759
1743528217524800000,3.51176349795423e-05,4.82044697491801e-06,8.22767106001265e-06,0.0773881673812866,-9.81168365478516,-0.10728594660759
1743528217529779968,-0.0017102116253227,4.82044697491801e-06,-0.00173710158560425,0.0773881673812866,-9.81168365478516,-0.10728594660759
1743528217534759936,-0.00520086986944079,4.82044697491801e-06,8.22767106001265e-06,0.0773881673812866,-9.81168365478516,-0.10728594660759
1743528217539740160,-0.00520086986944079,-0.00348583795130253,8.22767106001265e-06,0.0773881673812866,-9.81168365478516,-0.10728594660759
1743528217544709888,-0.00520086986944079,-0.00348583795130253,0.00175355689134449,0.07752666056900151,-9.811548182277791,-0.10728027510911341
1743528217549690112,-0.00345554086379707,0.00175014964770526,-0.00173710158560425,0.08380181394208024,-9.805409896520922,-0.10702329840590528
1743528217554670080,-0.0017102116253227,0.00175014964770526,-0.00173710158560425,0.09007696731515895,-9.799271610764055,-0.10676632170269715
1743528217559650048,-0.00520086986944079,4.82044697491801e-06,-0.00173710158560425,0.09635182026917538,-9.793133618873798,-0.10650935730208874
1743528217564620032,-0.00520086986944079,4.82044697491801e-06,8.22767106001265e-06,0.09177426821119788,-9.797611329764395,-0.10669681475000854
1743528217569600000,3.51176349795423e-05,4.82044697491801e-06,8.22767106001265e-06,0.0854952103067077,-9.803753434890787,-0.10695395134948535
1743528217574579968,-0.0017102116253227,4.82044697491801e-06,0.00175355689134449,0.0792164530082068,-9.809895245967718,-0.10721107563870749
1743528217579549952,-0.00345554086379707,0.00175014964770526,-0.0034824307076633,0.08180050246052521,-9.807422160378634,-0.10266850854626418
1743528217584530176,-0.0017102116253227,4.82044697491801e-06,8.22767106001265e-06,0.08804304209308661,-9.801393029034587,-0.09613579070387906
1743528217589499904,-0.00694619910791516,4.82044697491801e-06,8.22767106001265e-06,0.09427273084455837,-9.795376309249702,-0.0896165211029351
1743528217594480128,-0.00345554086379707,4.82044697491801e-06,-0.0034824307076633,0.09362343077392515,-9.79604619380378,-0.08681980871739321
1743528217599450112,-0.00520086986944079,4.82044697491801e-06,8.22767106001265e-06,0.08735300156827074,-9.802179858432222,-0.08707659195903963
1743528217604430080,-0.00345554086379707,4.82044697491801e-06,0.00175355689134449,0.08107023965622506,-9.808325586777913,-0.08733388024303988
1743528217609400064,-0.00345554086379707,-0.00174050882924348,8.22767106001265e-06,0.07975836029356559,-9.809578448669242,-0.08985806822056758
1743528217614370048,-0.00345554086379707,4.82044697491801e-06,8.22767106001265e-06,0.08606133213730574,-9.803335855682086,-0.09586431249179445
1743528217619350016,-0.0017102116253227,4.82044697491801e-06,8.22767106001265e-06,0.09237670069243384,-9.79708098473693,-0.10188236986937842
1743528217624320000,-0.00345554086379707,4.82044697491801e-06,-0.0034824307076633,0.09571901898615562,-9.793752618103227,-0.10653527143961308
1743528217629289984,-0.00345554086379707,4.82044697491801e-06,8.22767106001265e-06,0.08944449258174354,-9.799890290566266,-0.10679222246753786
1743528217634269952,-0.00520086986944079,-0.00174050882924348,-0.00173710158560425,0.08315762541255257,-9.80604003462918,-0.1070496788678192
1743528217639239936,-0.0017102116253227,-0.00174050882924348,8.22767106001265e-06,0.0773881673812866,-9.81168365478516,-0.10728594660759
1743528217644210176,-0.00345554086379707,0.00349547900259495,8.22767106001265e-06,0.0773881673812866,-9.81168365478516,-0.10728594660759
1743528217649179904,-0.00520086986944079,4.82044697491801e-06,-0.00173710158560425,0.0773881673812866,-9.81168365478516,-0.10728594660759
1743528217654149888,-0.00345554086379707,0.00349547900259495,-0.00173710158560425,0.0773881673812866,-9.81168365478516,-0.10728594660759
1743528217659120128,-0.0017102116253227,0.00175014964770526,-0.00173710158560425,0.0773881673812866,-9.81168365478516,-0.10728594660759
1743528217664099840,-0.00520086986944079,4.82044697491801e-06,8.22767106001265e-06,0.0773881673812866,-9.81168365478516,-0.10728594660759
1743528217669070080,-0.00520086986944079,0.00349547900259495,8.22767106001265e-06,0.0773881673812866,-9.81168365478516,-0.10728594660759
1743528217674040064,-0.00520086986944079,-0.00174050882924348,8.22767106001265e-06,0.08217023595155191,-9.80706506664581,-0.10228158836378608
1743528217679009792,-0.00520086986944079,-0.00174050882924348,8.22767106001265e-06,0.08840778174638206,-9.801040758419495,-0.09575409649268334
1743528217683980032,-0.00694619910791516,-0.00348583795130253,-0.00173710158560425,0.09464562677583897,-9.795016161188226,-0.08922629147733156
1743528217688940032,-0.00520086986944079,4.82044697491801e-06,-0.00173710158560425,0.09327670518489964,-9.792473437305746,-0.09048213946322793
1743528217693909760,-0.00345554086379707,4.82044697491801e-06,8.22767106001265e-06,0.08701712669783376,-9.79215897584741,-0.09674189730811407
1743528217698880000,-0.00520086986944079,-0.0052311671897769,8.22767106001265e-06,0.08075724791916382,-9.791844499303371,-0.10300195545320864
1743528217703849984,-0.0017102116253227,4.82044697491801e-06,8.22767106001265e-06,0.0773186087608337,-9.79167175292969,-0.10644069314003
1743528217708820224,-0.00694619910791516,-0.00348583795130253,8.22767106001265e-06,0.0773186087608337,-9.79167175292969,-0.10644069314003
1743528217713779968,-0.0017102116253227,0.00349547900259495,-0.00173710158560425,0.0773186087608337,-9.79167175292969,-0.10644069314003
1743528217718749952,-0.00520086986944079,4.82044697491801e-06,0.00175355689134449,0.07732504140227385,-9.793522413398998,-0.10651886048215752
1743528217723720192,-0.00520086986944079,-0.00348583795130253,8.22767106001265e-06,0.0773470892226391,-9.799865535421883,-0.10678677834042619
1743528217728689920,-0.0017102116253227,4.82044697491801e-06,8.22767106001265e-06,0.07736913598535201,-9.806208353159917,-0.10705468334645182
1743528217733649920,-0.00520086986944079,4.82044697491801e-06,8.22767106001265e-06,0.0773881673812866,-9.81168365478516,-0.10728594660759
1743528217738620160,-0.00694619910791516,-0.00174050882924348,8.22767106001265e-06,0.0773881673812866,-9.81168365478516,-0.10728594660759
1743528217743580160,-0.00520086986944079,4.82044697491801e-06,8.22767106001265e-06,0.0773881673812866,-9.81168365478516,-0.10728594660759
1743528217748549888,-0.00345554086379707,4.82044697491801e-06,8.22767106001265e-06,0.0773881673812866,-9.81168365478516,-0.10728594660759
1743528217753520128,-0.00345554086379707,4.82044697491801e-06,8.22767106001265e-06,0.07733069573104029,-9.80557901591087,-0.10087489099795938
1743528217758480128,-0.00520086986944079,4.82044697491801e-06,-0.00697308918461204,0.07727216052043988,-9.799361405652343,-0.0943451935093294
1743528217763439872,-0.0017102116253227,4.82044697491801e-06,8.22767106001265e-06,0.07721362812349118,-9.793144094259912,-0.08781580988810421
1743528217768409856,-0.0017102116253227,0.00175014964770526,8.22767106001265e-06,0.07725130482017424,-9.797146113102949,-0.09201870638728372
1743528217773370112,-0.00694619910791516,4.82044697491801e-06,8.22767106001265e-06,0.07730987654570254,-9.803367601977234,-0.09855247717522192
1743528217778340096,-0.00345554086379707,4.82044697491801e-06,-0.0034824307076633,0.0773685665183214,-9.809601651057859,-0.10509943861750992
1743528217783299840,-0.00520086986944079,4.82044697491801e-06,-0.00173710158560425,0.07740279700437293,-9.815892774106038,-0.10746372724152209
1743528217788260096,-0.00345554086379707,4.82044697491801e-06,-0.00173710158560425,0.07742478636053854,-9.822219377556046,-0.10773094408339212
1743528217793230080,-0.00345554086379707,4.82044697491801e-06,0.00175355689134449,0.07744682010975158,-9.82855875342217,-0.10799870039398733
1743528217798190080,-0.00520086986944079,4.82044697491801e-06,-0.00173710158560425,0.07743550233987971,-9.825302646633068,-0.10786117049036917
1743528217803149824,3.51176349795423e-05,4.82044697491801e-06,8.22767106001265e-06,0.07739141318885272,-9.812617967425174,-0.1073254041895967
1743528217808110080,-0.00345554086379707,-0.00174050882924348,8.22767106001265e-06,0.07734732191846067,-9.799932678464879,-0.10678961213454356
1743528217813070080,-0.00520086986944079,4.82044697491801e-06,-0.00173710158560425,0.07732628810703913,-9.793881088330203,-0.10653401002823851
1743528217818030080,-0.00345554086379707,4.82044697491801e-06,0.00175355689134449,0.07734830590175495,-9.800215572022632,-0.10680156302469518
1743528217822989824,3.51176349795423e-05,-0.00174050882924348,8.22767106001265e-06,0.07737032263812646,-9.80654975123113,-0.10706910316050021
1743528217827950080,-0.0017102116253227,0.00175014964770526,-0.00173710158560425,0.07738127356853276,-9.811704943690085,-0.10610434478911965
1743528217832920064,-0.00345554086379707,4.82044697491801e-06,8.22767106001265e-06,0.07734482710120681,-9.811817494669558,-0.09985740806382597
1743528217837879808,-0.00345554086379707,-0.00174050882924348,8.22767106001265e-06,0.07730845581368011,-9.811929813484966,-0.09362335718134088
1743528217842930176,3.51176349795423e-05,-0.00174050882924348,-0.00173710158560425,0.07727392465055741,-9.812036449779702,-0.0877047042389569
1743528217847879936,3.51176349795423e-05,4.82044697491801e-06,0.00175355689134449,0.077310501563343,-9.8119234959693,-0.09397399935978831
1743528217852829952,-0.00345554086379707,0.00175014964770526,-0.0034824307076633,0.0773470802379374,-9.811810536718225,-0.1002435964552414
1743528217857769984,-0.0017102116253227,4.82044697491801e-06,8.22767106001265e-06,0.07738358491656161,-9.811697805975413,-0.10650051061658367
1743528217862720000,3.51176349795423e-05,4.82044697491801e-06,8.22767106001265e-06,0.08287897114920939,-9.806312611153462,-0.10706109016722043
1743528217867670016,-0.00520086986944079,4.82044697491801e-06,8.22767106001265e-06,0.08915616226366416,-9.800172332100475,-0.10680403001552431
1743528217872620032,-0.00694619910791516,0.00175014964770526,8.22767106001265e-06,0.09543335337811894,-9.794032053047488,-0.10654696986382821
1743528217877569792,-0.00520086986944079,-0.00174050882924348,8.22767106001265e-06,0.09268175351622447,-9.79672363765693,-0.10665965190026912
1743528217882509824,-0.00520086986944079,0.00175014964770526,8.22767106001265e-06,0.0864172606980228,-9.802851495376702,-0.10691619203817218
1743528217887460096,-0.0017102116253227,-0.00174050882924348,8.22767106001265e-06,0.08014006958356804,-9.808991774429689,-0.1071732521898683
1743528217892400128,-0.0017102116253227,4.82044697491801e-06,0.00175355689134449,0.0773881673812866,-9.81168365478516,-0.10728594660759
1743528217897350144,-0.00345554086379707,-0.00174050882924348,-0.00173710158560425,0.0773881673812866,-9.81168365478516,-0.10728594660759
1743528217902290176,-0.00694619910791516,4.82044697491801e-06,8.22767106001265e-06,0.0773881673812866,-9.81168365478516,-0.10728594660759
1743528217907239936,-0.00345554086379707,-0.00174050882924348,8.22767106001265e-06,0.07739703418510344,-9.814234741374312,-0.10739369688893399
1743528217912179968,-0.00345554086379707,4.82044697491801e-06,8.22767106001265e-06,0.07741904714641243,-9.820568136309278,-0.10766120058285293
1743528217917120000,-0.00520086986944079,0.00175014964770526,-0.00173710158560425,0.07744106010772144,-9.826901531244244,-0.10792870427677187
1743528217922070016,-0.00345554086379707,-0.00174050882924348,8.22767106001265e-06,0.07745233085266952,-9.830144260741898,-0.10806566748969477
1743528217927010048,-0.00345554086379707,4.82044697491801e-06,0.00175355689134449,0.0774303037612941,-9.823806800416104,-0.10779799208580434
1743528217931950080,-0.00345554086379707,4.82044697491801e-06,8.22767106001265e-06,0.0774082766699187,-9.81746934009031,-0.10753031668191392
1743528217936889856,-0.00345554086379707,4.82044697491801e-06,8.22767106001265e-06,0.07738498472295269,-9.811693483208574,-0.10674043790156634
1743528217941839872,-0.00520086986944079,4.82044697491801e-06,8.22767106001265e-06,0.07734833560907112,-9.811806659984455,-0.10045876748866392
1743528217946779904,3.51176349795423e-05,4.82044697491801e-06,8.22767106001265e-06,0.07731176063365323,-9.811919607812037,-0.09418980443330614
1743528217951719936,3.51176349795423e-05,4.82044697491801e-06,-0.00173710158560425,0.07727518565823535,-9.81203255563962,-0.08792084137794837
1743528217956659968,-0.0017102116253227,0.00175014964770526,8.22767106001265e-06,0.07730672627892872,-9.81193515449178,-0.09332691434479841
1743528217961600000,3.51176349795423e-05,0.00175014964770526,8.22767106001265e-06,0.07734330125434662,-9.811822206664198,-0.09959587740015619
1743528217966540032,-0.00520086986944079,0.00349547900259495,8.22767106001265e-06,0.0773798762297645,-9.811709258836615,-0.10586484045551396
1743528217971470080,3.51176349795423e-05,4.82044697491801e-06,8.22767106001265e-06,0.0773881673812866,-9.81168365478516,-0.10728594660759
1743528217976409856,-0.00345554086379707,4.82044697491801e-06,-0.00522775994613767,0.0773881673812866,-9.81168365478516,-0.10728594660759
1743528217981349888,3.51176349795423e-05,4.82044697491801e-06,8.22767106001265e-06,0.0773881673812866,-9.81168365478516,-0.10728594660759
1743528217986289920,-0.00345554086379707,0.00349547900259495,8.22767106001265e-06,0.0773881673812866,-9.81168365478516,-0.10728594660759
1743528217991219968,-0.00345554086379707,4.82044697491801e-06,-0.00173710158560425,0.0773881673812866,-9.81168365478516,-0.10728594660759
1743528217996160000,-0.0017102116253227,4.82044697491801e-06,8.22767106001265e-06,0.0773881673812866,-9.81168365478516,-0.10728594660759
1743528218001100032,3.51176349795423e-05,4.82044697491801e-06,8.22767106001265e-06,0.0773881673812866,-9.81168365478516,-0.10728594660759
1743528218006030080,-0.0017102116253227,0.00349547900259495,-0.00173710158560425,0.0773881673812866,-9.81168365478516,-0.10728594660759
1743528218010970112,3.51176349795423e-05,4.82044697491801e-06,8.22767106001265e-06,0.0773881673812866,-9.81168365478516,-0.10728594660759
1743528218015899904,-0.0017102116253227,4.82044697491801e-06,-0.00173710158560425,0.0773881673812866,-9.81168365478516,-0.10728594660759
1743528218020829952,-0.00345554086379707,4.82044697491801e-06,8.22767106001265e-06,0.0773881673812866,-9.81168365478516,-0.10728594660759
1743528218025769984,-0.00520086986944079,-0.00174050882924348,8.22767106001265e-06,0.0773881673812866,-9.81168365478516,-0.10728594660759
1743528218030700032,-0.0017102116253227,4.82044697491801e-06,-0.00173710158560425,0.07649138723441243,-9.810755356252036,-0.10724641267076501
1743528218035630080,-0.00345554086379707,-0.00174050882924348,8.22767106001265e-06,0.0701754404097994,-9.80421742809539,-0.10696797849308544
1743528218040570112,3.51176349795423e-05,0.00349547900259495,-0.00173710158560425,0.06384666498635506,-9.797666220463814,-0.10668897877543766
1743528218045500160,3.51176349795423e-05,0.00175014964770526,-0.00173710158560425,0.05753071816174203,-9.791128292307167,-0.10641054459775809
1743528218050429952,-0.0017102116253227,0.00349547900259495,8.22767106001265e-06,0.06366758014564923,-9.797480841477102,-0.10668108394323887
1743528218055360000,-0.0017102116253227,-0.00174050882924348,8.22767106001265e-06,0.06998343025714518,-9.804018669521536,-0.1069595138573871
1743528218060290048,-0.00520086986944079,4.82044697491801e-06,-0.00173710158560425,0.07629928036864111,-9.81055649756597,-0.10723794377153532
1743528218065220096,-0.00345554086379707,4.82044697491801e-06,8.22767106001265e-06,0.07736993973146176,-9.806439589607107,-0.10706445020470577
1743528218070149888,-0.00345554086379707,4.82044697491801e-06,-0.00173710158560425,0.07734791594162783,-9.800103381128958,-0.10679682435754648
1743528218075079936,-0.0017102116253227,4.82044697491801e-06,8.22767106001265e-06,0.07732589108665923,-9.793766866213295,-0.10652918556722099
1743528218080009984,-0.00345554086379707,-0.00174050882924348,-0.00173710158560425,0.07733336077753059,-9.79591588411553,-0.10661995479279647
1743528218084940032,-0.00694619910791516,4.82044697491801e-06,8.22767106001265e-06,0.07735539980659337,-9.802256476895014,-0.10688776582205049
1743528218089870080,-0.0017102116253227,4.82044697491801e-06,8.22767106001265e-06,0.07737743883565616,-9.808597069674498,-0.10715557685130453
1743528218094789888,-0.0017102116253227,0.00349547900259495,-0.00522775994613767,0.08061872691064012,-9.815027909934685,-0.10742836840565853
1743528218099719936,-0.00520086986944079,4.82044697491801e-06,8.22767106001265e-06,0.08693864270515025,-9.821570247492097,-0.10770698694307208
1743528218104649984,-0.00345554086379707,-0.00174050882924348,8.22767106001265e-06,0.09325855849966039,-9.82811258504951,-0.10798560548048564
1743528218109570048,-0.00345554086379707,-0.0052311671897769,8.22767106001265e-06,0.09509019802010227,-9.830061976245531,-0.10585176033952526
1743528218114500096,-0.0017102116253227,-0.00174050882924348,8.22767106001265e-06,0.0887294971618563,-9.823628407159552,-0.09929655838326318
1743528218119420160,-0.0017102116253227,-0.00174050882924348,8.22767106001265e-06,0.082381715804338,-9.817207905580178,-0.09275467098750806
1743528218124349952,-0.00520086986944079,0.00349547900259495,-0.00173710158560425,0.0772798741020712,-9.812018077173402,-0.08872444222410696
1743528218129270016,-0.00345554086379707,0.00175014964770526,-0.00173710158560425,0.07731641752773942,-9.811905226775158,-0.09498799764178975
1743528218134200064,-0.00520086986944079,4.82044697491801e-06,-0.00173710158560425,0.0773530353294436,-9.811792146694966,-0.10126430113698479
1743528218139120128,-0.00345554086379707,0.00175014964770526,8.22767106001265e-06,0.0773881673812866,-9.81168365478516,-0.10728594660759
1743528218144040192,-0.0017102116253227,4.82044697491801e-06,8.22767106001265e-06,0.0773881673812866,-9.81168365478516,-0.10728594660759
1743528218148960000,-0.00345554086379707,4.82044697491801e-06,-0.00173710158560425,0.0773881673812866,-9.81168365478516,-0.10728594660759
1743528218153889792,-0.00345554086379707,0.00175014964770526,8.22767106001265e-06,0.0773881673812866,-9.81168365478516,-0.10728594660759
1743528218158809856,-0.0017102116253227,4.82044697491801e-06,8.22767106001265e-06,0.0718369525743819,-9.81150600915308,-0.10727642512131279
1743528218163729920,-0.0017102116253227,0.00349547900259495,-0.00173710158560425,0.06554376635478704,-9.811304619532487,-0.10726563099996923
1743528218168649984,-0.00345554086379707,4.82044697491801e-06,8.22767106001265e-06,0.059250580135192174,-9.811103229911897,-0.10725483687862569
1743528218173569792,-0.0017102116253227,4.82044697491801e-06,-0.0034824307076633,0.06208310569457011,-9.81578080188595,-0.1074534275834947
1743528218178489856,-0.0017102116253227,4.82044697491801e-06,-0.00173710158560425,0.0684024831526179,-9.822322580939064,-0.10773202233588516
1743528218183409920,-0.0017102116253227,0.00349547900259495,0.00175355689134449,0.0747218606106657,-9.828864359992178,-0.10801061708827563
1743528218188329984,-0.00345554086379707,0.00175014964770526,8.22767106001265e-06,0.07744522984010513,-9.82810121363083,-0.10797937527917055
1743528218193250048,-0.00345554086379707,-0.00348583795130253,-0.00173710158560425,0.07742319336843473,-9.821761054480833,-0.10771158588500303
1743528218198159872,-0.0017102116253227,4.82044697491801e-06,8.22767106001265e-06,0.07740120174711373,-9.815433799318251,-0.1074443415167395
1743528218203079936,-0.00345554086379707,-0.00174050882924348,8.22767106001265e-06,0.0773881673812866,-9.81168365478516,-0.10728594660759
1743528218208000000,-0.00345554086379707,4.82044697491801e-06,-0.00173710158560425,0.0773881673812866,-9.81168365478516,-0.10728594660759
1743528218212920064,-0.00345554086379707,4.82044697491801e-06,8.22767106001265e-06,0.0773881673812866,-9.81168365478516,-0.10728594660759
1743528218217829888,-0.0017102116253227,0.00349547900259495,-0.00173710158560425,0.07581284064157451,-9.811633242411627,-0.10728324459506552
1743528218222749952,-0.0017102116253227,4.82044697491801e-06,8.22767106001265e-06,0.06951153368272614,-9.811431592917494,-0.10727243654496764
1743528218227660032,-0.0017102116253227,-0.00174050882924348,0.00175355689134449,0.06322305163627706,-9.81123035383617,-0.107261650492258
1743528218232579840,-0.00345554086379707,4.82044697491801e-06,-0.00522775994613767,0.05810019383628864,-9.811066416149808,-0.10725286372720938
1743528218237489920,-0.00520086986944079,-0.00174050882924348,-0.00173710158560425,0.0643928325661804,-9.811267788250062,-0.10726365690949438
1743528218242409984,3.51176349795423e-05,0.00175014964770526,-0.0034824307076633,0.07069830468573204,-9.81146957103441,-0.1072744721037079
1743528218247320064,-0.0017102116253227,4.82044697491801e-06,8.22767106001265e-06,0.07699094341562382,-9.811670943134663,-0.10728526528599291
1743528218252229888,-0.00345554086379707,-0.00348583795130253,-0.00173710158560425,0.07736753738124019,-9.805748437359645,-0.10703525763530386
1743528218257149952,-0.00345554086379707,-0.00348583795130253,8.22767106001265e-06,0.07734547245530689,-9.799400394092675,-0.10676713191580055
1743528218262060032,3.51176349795423e-05,4.82044697491801e-06,0.00175355689134449,0.0773234524376353,-9.79306527085949,-0.10649955190671687
1743528218266969856,3.51176349795423e-05,4.82044697491801e-06,8.22767106001265e-06,0.08224417471763269,-9.796770432705877,-0.10665783329157634
1743528218271879936,-0.00520086986944079,4.82044697491801e-06,8.22767106001265e-06,0.08855873555642244,-9.80330692494385,-0.1069362063170336
1743528218276790016,-0.00345554086379707,4.82044697491801e-06,8.22767106001265e-06,0.09487329639521216,-9.809843417181826,-0.10721457934249085
1743528218281699840,-0.0017102116253227,0.00175014964770526,-0.0034824307076633,0.0933544083431318,-9.812194594029595,-0.10731333203186044
1743528218286609920,3.51176349795423e-05,-0.0052311671897769,8.22767106001265e-06,0.08705780232305826,-9.811993094933465,-0.1073025320428251
1743528218291520000,-0.00520086986944079,4.82044697491801e-06,8.22767106001265e-06,0.08076089055344504,-9.811791586052976,-0.1072917315293657
1743528218296430080,-0.00345554086379707,4.82044697491801e-06,8.22767106001265e-06,0.0773881673812866,-9.81168365478516,-0.10728594660759
1743528218301340160,-0.00345554086379707,-0.00174050882924348,8.22767106001265e-06,0.0773881673812866,-9.81168365478516,-0.10728594660759
1743528218306249984,-0.00345554086379707,0.00175014964770526,-0.00173710158560425,0.0773881673812866,-9.81168365478516,-0.10728594660759
1743528218311160064,-0.00345554086379707,-0.00174050882924348,8.22767106001265e-06,0.0773881673812866,-9.81168365478516,-0.10728594660759
1743528218316060160,-0.00345554086379707,4.82044697491801e-06,-0.00173710158560425,0.0773881673812866,-9.81168365478516,-0.10728594660759
1743528218320969984,-0.00345554086379707,4.82044697491801e-06,8.22767106001265e-06,0.0773881673812866,-9.81168365478516,-0.10728594660759
1743528218325880064,-0.00345554086379707,-0.00174050882924348,-0.00173710158560425,0.07739149060674275,-9.812639786900974,-0.10732633077366224
1743528218330779904,-0.00345554086379707,4.82044697491801e-06,8.22767106001265e-06,0.07741349412786862,-9.818970465781195,-0.10759371974953749
1743528218335689984,-0.00520086986944079,-0.00348583795130253,8.22767106001265e-06,0.07743554261531832,-9.825314082016078,-0.10786165516064954
1743528218340590080,-0.00345554086379707,-0.00174050882924348,-0.00173710158560425,0.07745754613644419,-9.8316447608963,-0.10812904413652479
1743528218345499904,-0.00345554086379707,4.82044697491801e-06,8.22767106001265e-06,0.0836851347262481,-9.825604628019374,-0.10787619901782311
1743528218350400000,-0.00345554086379707,4.82044697491801e-06,-0.00173710158560425,0.08995095789799493,-9.81947516728607,-0.10761959497261094
1743528218355310080,-0.00694619910791516,0.00349547900259495,8.22767106001265e-06,0.09622958588548781,-9.813333180406854,-0.10736246653221099
1743528218360209920,-0.00520086986944079,-0.00348583795130253,8.22767106001265e-06,0.0920138625189365,-9.81215169492315,-0.10731103271693483
1743528218365110016,-0.00345554086379707,-0.00174050882924348,-0.00173710158560425,0.08572187151001973,-9.811950343513024,-0.10730024064360355
1743528218370019840,-0.00520086986944079,4.82044697491801e-06,-0.00173710158560425,0.0794170222088504,-9.811748580621813,-0.10728942651562651
1743528218374919936,3.51176349795423e-05,4.82044697491801e-06,-0.00173710158560425,0.0773881673812866,-9.81168365478516,-0.10728594660759
1743528218379820032,-0.00345554086379707,4.82044697491801e-06,0.00524421548470855,0.0773881673812866,-9.81168365478516,-0.10728594660759
1743528218384720128,-0.0017102116253227,4.82044697491801e-06,-0.00173710158560425,0.0773881673812866,-9.81168365478516,-0.10728594660759
1743528218389619968,-0.00345554086379707,4.82044697491801e-06,8.22767106001265e-06,0.07737670854989853,-9.808386967651009,-0.10714670265907747
1743528218394520064,-0.00520086986944079,-0.00174050882924348,8.22767106001265e-06,0.0773546907953466,-9.802052495513664,-0.10687915015067904
1743528218399419904,-0.0017102116253227,-0.00174050882924348,8.22767106001265e-06,0.07733267304079466,-9.795718023376317,-0.10661159764228062
1743528218404320000,-0.0017102116253227,4.82044697491801e-06,8.22767106001265e-06,0.07732657253848842,-9.793962918795074,-0.10653746634561827
1743528218409220096,-0.00345554086379707,0.00175014964770526,8.22767106001265e-06,0.07734861881520712,-9.800305596713365,-0.10680536544600217
1743528218414119936,-0.00520086986944079,-0.00174050882924348,8.22767106001265e-06,0.07737066509192583,-9.806648274631655,-0.10707326454638605
1743528218419020032,3.51176349795423e-05,4.82044697491801e-06,8.22767106001265e-06,0.0773881673812866,-9.81168365478516,-0.10728594660759
1743528218423909888,-0.00345554086379707,4.82044697491801e-06,-0.00173710158560425,0.0773881673812866,-9.81168365478516,-0.10728594660759
1743528218428809984,-0.00520086986944079,4.82044697491801e-06,0.00175355689134449,0.0773881673812866,-9.81168365478516,-0.10728594660759
1743528218433710080,-0.00520086986944079,-0.00174050882924348,-0.00173710158560425,0.07768417183262766,-9.811693127289745,-0.10728645431679376
1743528218438599936,-0.0017102116253227,-0.00174050882924348,8.22767106001265e-06,0.08397541669999067,-9.81189445482243,-0.10729724511033707
1743528218443500032,-0.0017102116253227,4.82044697491801e-06,-0.00173710158560425,0.0902795446626452,-9.812096194629925,-0.10730805800106853
1743528218448389888,3.51176349795423e-05,-0.0052311671897769,0.00349888624623418,0.09657078953000822,-9.812297522162607,-0.10731884879461184
1743528218453289984,-0.00520086986944079,4.82044697491801e-06,8.22767106001265e-06,0.09165982864661532,-9.8121403654061,-0.10731042547520381
1743528218458179840,-0.00345554086379707,-0.00174050882924348,0.00524421548470855,0.08537265867106078,-9.811939168274938,-0.10729964167094753
1743528218463079936,-0.0017102116253227,4.82044697491801e-06,-0.0034824307076633,0.07907261394470308,-9.811737559136,-0.10728883578381565
1743528218467969792,-0.00345554086379707,0.00349547900259495,8.22767106001265e-06,0.0773881673812866,-9.81168365478516,-0.10728594660759
1743528218472860160,-0.0017102116253227,0.00349547900259495,8.22767106001265e-06,0.0773881673812866,-9.81168365478516,-0.10728594660759
1743528218477760000,-0.0017102116253227,0.00175014964770526,-0.00173710158560425,0.0773881673812866,-9.81168365478516,-0.10728594660759
1743528218482650112,-0.00520086986944079,0.00175014964770526,-0.00173710158560425,0.0737705801125245,-9.811567887588371,-0.10727974169411894
1743528218487539968,-0.0017102116253227,-0.00348583795130253,8.22767106001265e-06,0.06747525388799452,-9.811366429485018,-0.10726894390222248
1743528218492430080,-0.00520086986944079,-0.00174050882924348,8.22767106001265e-06,0.06117992766346454,-9.811164971381663,-0.10725814611032604
1743528218497319936,-0.00345554086379707,4.82044697491801e-06,8.22767106001265e-06,0.06013865203225748,-9.811131649293776,-0.10725636010636506
1743528218502209792,-0.00520086986944079,4.82044697491801e-06,-0.00173710158560425,0.06643806373071172,-9.81133323813727,-0.10726716490569776
1743528218507100160,3.51176349795423e-05,0.00524080824106932,8.22767106001265e-06,0.07273778256771782,-9.811534836809571,-0.10727797023183688
1743528218511990016,-0.0017102116253227,4.82044697491801e-06,-0.0034824307076633,0.07737859181617973,-9.811713225256891,-0.10564469153624124
1743528218516880128,-0.00345554086379707,0.00175014964770526,8.22767106001265e-06,0.07734201240840517,-9.811826186772112,-0.0993749687734618
1743528218521769984,3.51176349795423e-05,4.82044697491801e-06,8.22767106001265e-06,0.0773054330006306,-9.811939148287333,-0.09310524601068236
1743528218526659840,-0.00694619910791516,-0.0052311671897769,-0.0034824307076633,0.07793345508391904,-9.812049564330449,-0.08814482060199051
1743528218531539968,-0.00520086986944079,-0.00348583795130253,8.22767106001265e-06,0.08425649397645958,-9.812137937010863,-0.09441654754144013
1743528218536429824,-0.0017102116253227,0.00349547900259495,-0.0034824307076633,0.09059250764100946,-9.81222649103057,-0.10070114396161366
1743528218541320192,3.51176349795423e-05,-0.00174050882924348,0.00175355689134449,0.09692883022870241,-9.812315049367877,-0.1069860467979949
1743528218546210048,-0.00345554086379707,4.82044697491801e-06,8.22767106001265e-06,0.0912761674353302,-9.806119863616418,-0.10705600241258448
1743528218551089920,-0.00345554086379707,4.82044697491801e-06,8.22767106001265e-06,0.08496356113009786,-9.79958539460599,-0.10677771555138055
1743528218555980032,-0.0017102116253227,4.82044697491801e-06,8.22767106001265e-06,0.07863800146035411,-9.79303751697242,-0.10649885765010575
1743528218560859904,-0.0017102116253227,4.82044697491801e-06,8.22767106001265e-06,0.07234280832813163,-9.79151252119843,-0.10643215860570836
1743528218565749760,-0.00345554086379707,4.82044697491801e-06,8.22767106001265e-06,0.06603930821233671,-9.791310801444995,-0.10642134678983826
1743528218570630144,-0.00345554086379707,4.82044697491801e-06,8.22767106001265e-06,0.059748408950015604,-9.791109484934362,-0.10641055658705695
1743528218575510016,-0.00345554086379707,-0.00174050882924348,-0.00173710158560425,0.06542185301146809,-9.795300897365022,-0.10658964907138554
1743528218580399872,-0.00345554086379707,0.00524080824106932,-0.00173710158560425,0.0780507175334697,-9.802050390393486,-0.1068793143098175
1743528218585280000,-0.0017102116253227,-0.00174050882924348,0.00175355689134449,0.09065372089945356,-9.80878606193452,-0.10716838637711273
1743528218590159872,-0.00345554086379707,4.82044697491801e-06,8.22767106001265e-06,0.0942627436771588,-9.809211405993032,-0.10718766355029805
1743528218595040000,-0.00520086986944079,4.82044697491801e-06,8.22767106001265e-06,0.08794572674574655,-9.802672371340664,-0.1069091822497047
1743528218599930112,-0.00520086986944079,0.00175014964770526,8.22767106001265e-06,0.08161605664641265,-9.796120238812449,-0.1066301431429985
1743528218604809984,-0.0017102116253227,4.82044697491801e-06,0.00175355689134449,0.07733269181475651,-9.7957235211565,-0.10661182879422258
1743528218609689856,-0.0017102116253227,0.00524080824106932,-0.00522775994613767,0.07737674682739475,-9.808398378571503,-0.10714718024921473
1743528218614569984,-0.00345554086379707,4.82044697491801e-06,8.22767106001265e-06,0.07742080184003299,-9.821073235986507,-0.10768253170420689
1743528218619450112,-0.00345554086379707,4.82044697491801e-06,-0.0034824307076633,0.07744467174995431,-9.829662595847404,-0.10702951551110797
1743528218624329984,-0.00345554086379707,4.82044697491801e-06,-0.00173710158560425,0.07736404579173486,-9.817100688387681,-0.10022508290678124
1743528218629210112,-0.0017102116253227,0.00175014964770526,-0.00173710158560425,0.0772834198335154,-9.804538780927958,-0.09342065030245451
1743528218634080000,-0.0017102116253227,0.00349547900259495,-0.00173710158560425,0.07720324515925188,-9.792041215764966,-0.0866575734211553
1743528218638959872,-0.00520086986944079,0.00349547900259495,8.22767106001265e-06,0.07726191895733597,-9.798273546786458,-0.09320273056790918
1743528218643840000,-0.00520086986944079,0.00175014964770526,-0.0034824307076633,0.07732059562203127,-9.804506182299399,-0.09974820748978258
1743528218648720128,-0.00520086986944079,0.00175014964770526,8.22767106001265e-06,0.07737926942011535,-9.810738513320889,-0.10629336463653645
1743528218653590016,-0.0017102116253227,-0.00174050882924348,8.22767106001265e-06,0.0773881673812866,-9.81168365478516,-0.10728594660759
1743528218658469888,-0.0017102116253227,4.82044697491801e-06,-0.00173710158560425,0.0773881673812866,-9.81168365478516,-0.10728594660759
1743528218663340032,3.51176349795423e-05,4.82044697491801e-06,8.22767106001265e-06,0.0773881673812866,-9.81168365478516,-0.10728594660759
1743528218668220160,-0.00694619910791516,4.82044697491801e-06,8.22767106001265e-06,0.0773881673812866,-9.81168365478516,-0.10728594660759
1743528218673090048,-0.0017102116253227,4.82044697491801e-06,-0.0034824307076633,0.0773881673812866,-9.81168365478516,-0.10728594660759
