#timestamp [ns],w_RS_S_x [rad s^-1],w_RS_S_y [rad s^-1],w_RS_S_z [rad s^-1],a_RS_S_x [m s^-2],a_RS_S_y [m s^-2],a_RS_S_z [m s^-2]
1743518882577889792,-0.0017102116253227,0.00175014964770526,-0.0034824307076633,0.05732045578845879,-9.78987421694477,-0.08654592780523251
1743518882583630080,-0.00520086986944079,-0.00174050882924348,8.22767106001265e-06,0.05730902138064667,-9.786584204032954,-0.08640696575944028
1743518882589400064,-0.00694619910791516,4.82044697491801e-06,-0.0034824307076633,0.057287007728609354,-9.780250233736542,-0.08613943444756751
1743518882595190016,-0.00345554086379707,4.82044697491801e-06,8.22767106001265e-06,0.05726491766870579,-9.773894278666571,-0.08587097455298341
1743518882601020160,-0.00345554086379707,4.82044697491801e-06,8.22767106001265e-06,0.05726946818072408,-9.775203593809211,-0.08592627680123742
1743518882606880000,-0.0017102116253227,-0.0052311671897769,8.22767106001265e-06,0.05729146288804676,-9.781532113158205,-0.08619357787851077
1743518882612770048,-0.00345554086379707,0.00175014964770526,-0.00522775994613767,0.05731357124692083,-9.787893333376159,-0.08646226015998355
1743518882618680064,-0.00694619910791516,4.82044697491801e-06,0.00175355689134449,0.06013293428839934,-9.788646352545905,-0.08649508999234319
1743518882624630016,-0.0017102116253227,-0.00174050882924348,8.22767106001265e-06,0.06638854114925141,-9.78252718812236,-0.08623891379556214
1743518882630609920,-0.00520086986944079,0.00175014964770526,8.22767106001265e-06,0.07267573185625138,-9.776377128734984,-0.08598144419435753
1743518882636620032,-0.0017102116253227,4.82044697491801e-06,8.22767106001265e-06,0.07528795735687187,-9.770105962167207,-0.08571752424548366
1743518882642649856,-0.00520086986944079,-0.0052311671897769,8.22767106001265e-06,0.06900060663453425,-9.763597334554591,-0.08544034131352944
1743518882648720128,3.51176349795423e-05,4.82044697491801e-06,-0.00173710158560425,0.06267124245792138,-9.757045214867066,-0.08516130618452884
1743518882654819840,-0.00520086986944079,-0.00348583795130253,8.22767106001265e-06,0.056279600278017754,-9.752265945531192,-0.08405519129482514
1743518882660950016,-0.0017102116253227,-0.00174050882924348,0.00175355689134449,0.04966011690264098,-9.758822334907219,-0.07774734098512148
1743518882666480128,3.51176349795423e-05,4.82044697491801e-06,-0.00173710158560425,0.04368839597028268,-9.764737136026463,-0.07205675765761278
1743518882672320000,-0.00520086986944079,-0.00174050882924348,-0.00173710158560425,0.03738223806913224,-9.77098318640865,-0.06604748203683253
1743518882678169856,-0.00694619910791516,4.82044697491801e-06,8.22767106001265e-06,0.04345640627743046,-9.771187554728533,-0.07207699698586316
1743518882684040192,-0.00869152881205082,4.82044697491801e-06,8.22767106001265e-06,0.049789974146737845,-9.771276074565073,-0.07835917217916762
1743518882689929984,-0.00345554086379707,-0.00174050882924348,-0.00173710158560425,0.05614489314447838,-9.771364892811363,-0.08466252525074851
1743518882695830016,-0.00345554086379707,4.82044697491801e-06,0.00175355689134449,0.057256180793047,-9.77138042449951,-0.0857647955417633
1743518882701740032,-0.0017102116253227,-0.00348583795130253,-0.00173710158560425,0.057256180793047,-9.77138042449951,-0.0857647955417633
1743518882707670016,3.51176349795423e-05,4.82044697491801e-06,-0.0034824307076633,0.057256180793047,-9.77138042449951,-0.0857647955417633
1743518882713619968,-0.00520086986944079,4.82044697491801e-06,8.22767106001265e-06,0.05723183193915965,-9.771455621476047,-0.08159112772511083
1743518882719579904,-0.0017102116253227,0.00175014964770526,0.00175355689134449,0.0571952772187539,-9.771568514036224,-0.07532523690289725
1743518882725560064,-0.00345554086379707,4.82044697491801e-06,-0.00173710158560425,0.0571585996646609,-9.771681785945749,-0.0690382910031148
1743518882731549952,-0.00520086986944079,4.82044697491801e-06,-0.00173710158560425,0.05393474919919067,-9.768341343590457,-0.06902638953463722
1743518882737560064,-0.00520086986944079,4.82044697491801e-06,-0.00173710158560425,0.047658317143386066,-9.76169330113579,-0.07501344491272412
1743518882743580160,-0.0017102116253227,4.82044697491801e-06,8.22767106001265e-06,0.04137142768729807,-9.755034182126732,-0.0810104755496923
1743518882749619968,-0.00520086986944079,4.82044697491801e-06,8.22767106001265e-06,0.03953579329094752,-9.75308986483154,-0.08276147750225993
1743518882755680000,-0.00520086986944079,-0.00174050882924348,8.22767106001265e-06,0.04581156356508058,-9.759737206322251,-0.07677505339421316
1743518882761750016,-0.0017102116253227,4.82044697491801e-06,8.22767106001265e-06,0.0520974568457932,-9.766395270175112,-0.07077897300367249
1743518882767830016,-0.00520086986944079,4.82044697491801e-06,-0.00173710158560425,0.05714793360963886,-9.771714726103546,-0.0672100090321407
1743518882773929984,-0.00345554086379707,0.00175014964770526,8.22767106001265e-06,0.05718445613195343,-9.771601932981278,-0.07347038073885419
1743518882780039936,-0.00345554086379707,4.82044697491801e-06,0.00349888624623418,0.05722103717937606,-9.771488959114933,-0.07974078430830414
1743518882786180096,3.51176349795423e-05,-0.00348583795130253,8.22767106001265e-06,0.05698011937772905,-9.771371590199788,-0.08576432162529114
1743518882792320000,-0.0017102116253227,4.82044697491801e-06,-0.0034824307076633,0.05070526533652595,-9.77117078726886,-0.08575354954152459
1743518882798480128,3.51176349795423e-05,-0.00348583795130253,8.22767106001265e-06,0.04440994425305745,-9.770969329367786,-0.08574274232185013
1743518882804659968,-0.00520086986944079,4.82044697491801e-06,-0.0034824307076633,0.03809415612732353,-9.770767216496564,-0.08573189996626775
1743518882810849792,3.51176349795423e-05,-0.00174050882924348,8.22767106001265e-06,0.042965812509630795,-9.776527713527473,-0.08597698048664906
1743518882817060096,-0.00345554086379707,4.82044697491801e-06,-0.00173710158560425,0.04928585613775764,-9.783069881252763,-0.08625560465970998
1743518882823280128,3.51176349795423e-05,4.82044697491801e-06,8.22767106001265e-06,0.05561609064515586,-9.789622598025714,-0.08653467810582607
1743518882829519872,3.51176349795423e-05,4.82044697491801e-06,-0.0034824307076633,0.05730968162839567,-9.786774176583775,-0.08641498973229818
1743518882835779840,-0.0017102116253227,0.00175014964770526,-0.00173710158560425,0.057287647874173675,-9.780434422302024,-0.08614721411912415
1743518882842040064,3.51176349795423e-05,0.00349547900259495,8.22767106001265e-06,0.057265613280762385,-9.774094426561016,-0.08587942830730551
1743518882848329984,-0.00345554086379707,-0.00174050882924348,-0.00173710158560425,0.05724356830061028,-9.767751658038028,-0.08561152727998846
1743518882854629888,3.51176349795423e-05,4.82044697491801e-06,0.00175355689134449,0.05722155849344163,-9.761419170587347,-0.0853440619154964
1743518882860940032,3.51176349795423e-05,4.82044697491801e-06,0.00175355689134449,0.05719951370247411,-9.75507661787505,-0.08507617142440319
1743518882867269888,-0.0017102116253227,4.82044697491801e-06,8.22767106001265e-06,0.054564608030001564,-9.753964591228632,-0.08242093771802353
1743518882873619968,3.51176349795423e-05,4.82044697491801e-06,8.22767106001265e-06,0.048257850631481775,-9.760211235394042,-0.07641109082310411
1743518882879980032,-0.00694619910791516,4.82044697491801e-06,8.22767106001265e-06,0.04194114790703506,-9.766467730090914,-0.07039176680985523
1743518882886359808,-0.0017102116253227,4.82044697491801e-06,8.22767106001265e-06,0.03890569239992109,-9.77115355670105,-0.06593695602820518
1743518882892750080,-0.00345554086379707,4.82044697491801e-06,8.22767106001265e-06,0.04519061438176511,-9.771354681818279,-0.06594774539567255
1743518882899159808,3.51176349795423e-05,4.82044697491801e-06,8.22767106001265e-06,0.051494999408325685,-9.771556429776515,-0.06595856817547854
1743518882905580032,-0.00520086986944079,-0.0052311671897769,8.22767106001265e-06,0.057140689343214,-9.77173709869385,-0.0659682601690292
1743518882912019968,-0.00520086986944079,-0.0052311671897769,8.22767106001265e-06,0.057140689343214,-9.77173709869385,-0.0659682601690292
1743518882918469888,-0.00345554086379707,-0.0052311671897769,8.22767106001265e-06,0.057140689343214,-9.77173709869385,-0.0659682601690292
1743518882924940032,-0.00520086986944079,0.00175014964770526,8.22767106001265e-06,0.057140689343214,-9.77173709869385,-0.0659682601690292
1743518882931420160,-0.00694619910791516,-0.00174050882924348,-0.00173710158560425,0.05104863975447992,-9.771431053589156,-0.0720604659407238
1743518882937920000,-0.0017102116253227,-0.00348583795130253,8.22767106001265e-06,0.04460989007672621,-9.771107591379842,-0.07849938068984998
1743518882943970048,-0.00345554086379707,4.82044697491801e-06,8.22767106001265e-06,0.03861703261155361,-9.770806529370475,-0.08449239179497695
1743518882950030080,-0.00345554086379707,-0.00174050882924348,8.22767106001265e-06,0.042379426140417426,-9.77090435032833,-0.08573925651786883
1743518882956079872,-0.00345554086379707,4.82044697491801e-06,-0.0034824307076633,0.04866895711859929,-9.771105622939022,-0.08575005379763095
1743518882962150144,-0.00345554086379707,4.82044697491801e-06,8.22767106001265e-06,0.0549795564764125,-9.771307569763383,-0.08576088724562084
1743518882968209920,-0.00520086986944079,4.82044697491801e-06,8.22767106001265e-06,0.057256180793047,-9.77138042449951,-0.0857647955417633
1743518882974280192,-0.00520086986944079,4.82044697491801e-06,-0.0034824307076633,0.057256180793047,-9.77138042449951,-0.0857647955417633
1743518882980359936,-0.00345554086379707,0.00175014964770526,-0.00173710158560425,0.057256180793047,-9.77138042449951,-0.0857647955417633
1743518882986439936,-0.00345554086379707,-0.00348583795130253,0.00175355689134449,0.05724917032378129,-9.774488661465103,-0.08287283712410196
1743518882992520192,-0.0017102116253227,4.82044697491801e-06,8.22767106001265e-06,0.0572346222737191,-9.78093884122721,-0.07687147626746597
1743518882998609920,-0.00345554086379707,-0.00697649642825127,8.22767106001265e-06,0.05722005083450891,-9.787399391053244,-0.07086046692070679
1743518883004699904,-0.0017102116253227,4.82044697491801e-06,8.22767106001265e-06,0.05720305108945793,-9.789680393503422,-0.06672614076762384
1743518883010790144,-0.00345554086379707,-0.00174050882924348,0.00175355689134449,0.05718104693930661,-9.78334915717699,-0.0664587249319123
1743518883016890112,-0.00694619910791516,4.82044697491801e-06,-0.00173710158560425,0.057159007470874816,-9.777007758750285,-0.06619087987410303
1743518883022990080,-0.0017102116253227,4.82044697491801e-06,8.22767106001265e-06,0.057146855891185504,-9.77171805443964,-0.06702527595004233
1743518883029100032,-0.00520086986944079,0.00349547900259495,-0.00173710158560425,0.05718343693860814,-9.771605080573295,-0.0732956795194923
1743518883035209984,-0.00520086986944079,-0.00174050882924348,8.22767106001265e-06,0.05722001798603077,-9.771492106706948,-0.07956608308894225
1743518883041330176,-0.00520086986944079,-0.00174050882924348,8.22767106001265e-06,0.057255990404595836,-9.771464837168521,-0.0856862565077688
1743518883047450112,3.51176349795423e-05,4.82044697491801e-06,-0.00173710158560425,0.0572414455202119,-9.777913613361507,-0.07968620155656356
1743518883053570048,-0.00345554086379707,4.82044697491801e-06,-0.0034824307076633,0.05722690063582798,-9.784362389554493,-0.07368614660535831
1743518883059699968,-0.00345554086379707,-0.00174050882924348,0.00175355689134449,0.057212331952887656,-9.790821717331108,-0.06767627427490375
1743518883065829888,-0.00520086986944079,4.82044697491801e-06,-0.00173710158560425,0.0572226919552203,-9.786228395401656,-0.07194998189950004
1743518883071970048,-0.0017102116253227,-0.00174050882924348,0.00175355689134449,0.05723725426172697,-9.779771894749167,-0.07795722382387539
1743518883078109952,-0.00520086986944079,4.82044697491801e-06,8.22767106001265e-06,0.05725181656823364,-9.773315394096679,-0.08396446574825074
1743518883084249856,-0.0017102116253227,-0.00174050882924348,8.22767106001265e-06,0.057256180793047,-9.77138042449951,-0.0857647955417633
1743518883090400000,3.51176349795423e-05,4.82044697491801e-06,0.00175355689134449,0.057256180793047,-9.77138042449951,-0.0857647955417633
1743518883096549888,3.51176349795423e-05,4.82044697491801e-06,8.22767106001265e-06,0.057256180793047,-9.77138042449951,-0.0857647955417633
1743518883102710016,3.51176349795423e-05,-0.00174050882924348,-0.00173710158560425,0.057256180793047,-9.77138042449951,-0.0857647955417633
1743518883108870144,-0.0017102116253227,0.00349547900259495,-0.00522775994613767,0.057256180793047,-9.77138042449951,-0.0857647955417633
1743518883115030016,-0.00345554086379707,0.00175014964770526,8.22767106001265e-06,0.057256180793047,-9.77138042449951,-0.0857647955417633
1743518883121200128,-0.00345554086379707,-0.00174050882924348,-0.0034824307076633,0.054757379377856866,-9.768852996800103,-0.08318958251172136
1743518883127379968,-0.0017102116253227,0.00349547900259495,-0.0034824307076633,0.04829663796322062,-9.762318241092512,-0.07653127610387227
1743518883133549824,-0.00345554086379707,4.82044697491801e-06,-0.00173710158560425,0.04184611608554425,-9.755793821996956,-0.06988350173933806
1743518883139329792,-0.00345554086379707,-0.00174050882924348,8.22767106001265e-06,0.038663196165940446,-9.754029999737714,-0.06665971466374002
1743518883145110016,3.51176349795423e-05,-0.00174050882924348,8.22767106001265e-06,0.045049744475222454,-9.766815845481515,-0.07348696340798737
1743518883150880000,3.51176349795423e-05,4.82044697491801e-06,8.22767106001265e-06,0.05142549179119998,-9.779580067677262,-0.08030266584202088
1743518883156649984,-0.00520086986944079,4.82044697491801e-06,8.22767106001265e-06,0.056851093060644425,-9.790912272370376,-0.0861208965018943
1743518883162409984,3.51176349795423e-05,-0.0052311671897769,0.00175355689134449,0.050494773082786194,-9.784483434114245,-0.07957021167541305
1743518883168169984,-0.00345554086379707,4.82044697491801e-06,-0.00173710158560425,0.044138453104927956,-9.778054595858114,-0.07301952684893177
1743518883173929984,-0.00520086986944079,-0.00174050882924348,8.22767106001265e-06,0.037782133127069725,-9.771625757601983,-0.0664688420224505
1743518883179680000,-0.00520086986944079,4.82044697491801e-06,8.22767106001265e-06,0.043069311215079925,-9.777111074499672,-0.06619009946988375
1743518883185430016,-0.0017102116253227,-0.00174050882924348,8.22767106001265e-06,0.04939206682114652,-9.783656049518015,-0.06646884320265903
1743518883191180032,-0.00345554086379707,4.82044697491801e-06,8.22767106001265e-06,0.05571482242721311,-9.790201024536357,-0.06674758693543431
1743518883196919808,-0.00345554086379707,0.00349547900259495,8.22767106001265e-06,0.05722135136082202,-9.786822775735788,-0.07139695996789883
1743518883202660096,-0.00520086986944079,0.00175014964770526,-0.00173710158560425,0.05723591261334422,-9.780366742389177,-0.0774037671026554
1743518883208400128,-0.0017102116253227,4.82044697491801e-06,8.22767106001265e-06,0.057250473261062786,-9.773910977194808,-0.08341032474384431
1743518883214129920,-0.00520086986944079,4.82044697491801e-06,8.22767106001265e-06,0.05724733841141491,-9.775300877811697,-0.08211713672979593
1743518883219859968,-0.0017102116253227,0.00175014964770526,-0.0034824307076633,0.05723277840866445,-9.781756357046081,-0.07611084515081373
1743518883225580032,-0.00345554086379707,-0.00174050882924348,8.22767106001265e-06,0.05721824445568175,-9.788200286575586,-0.07011529962067468
1743518883231300096,-0.00345554086379707,0.00349547900259495,8.22767106001265e-06,0.057216785629295594,-9.788847087514007,-0.06951350463556853
1743518883237019904,-0.00345554086379707,4.82044697491801e-06,8.22767106001265e-06,0.057231351852206284,-9.78238885044256,-0.07552236215472578
1743518883242739968,3.51176349795423e-05,-0.00174050882924348,8.22767106001265e-06,0.05724591807511697,-9.775930613371115,-0.08153121967388305
1743518883248450048,-0.00345554086379707,4.82044697491801e-06,8.22767106001265e-06,0.055357565849509724,-9.771319666521258,-0.0857615361768318
1743518883254009856,-0.00520086986944079,-0.00174050882924348,8.22767106001265e-06,0.049074651065447096,-9.771118605636795,-0.08575075025513423
1743518883259569920,3.51176349795423e-05,0.00175014964770526,8.22767106001265e-06,0.042791736281384475,-9.770917544752331,-0.08573996433343667
1743518883265129984,-0.00345554086379707,4.82044697491801e-06,-0.00173710158560425,0.03824840393898191,-9.770788010643887,-0.08486102991814759
1743518883270680064,-0.00345554086379707,4.82044697491801e-06,-0.0034824307076633,0.04451558866828197,-9.771102853978414,-0.07859368451591621
1743518883276220160,-0.00345554086379707,-0.00348583795130253,0.00175355689134449,0.050771734881648475,-9.77141714277317,-0.0723373779126148
1743518883281760000,-0.00520086986944079,-0.00174050882924348,-0.00173710158560425,0.05702761186291905,-9.771731418042569,-0.06608134054831166
1743518883287290112,-0.00345554086379707,-0.00348583795130253,8.22767106001265e-06,0.05717664819061853,-9.771626046378323,-0.07213201164704663
1743518883292809984,-0.00694619910791516,-0.00174050882924348,0.00349888624623418,0.05721320227338954,-9.771513155787366,-0.07839779317148393
1743518883298330112,-0.00345554086379707,0.00175014964770526,8.22767106001265e-06,0.057249757935034194,-9.771400260320346,-0.08466384533264915
1743518883303849984,-0.00694619910791516,0.00524080824106932,8.22767106001265e-06,0.057256180793047,-9.77138042449951,-0.0857647955417633
1743518883309349888,-0.00345554086379707,0.00524080824106932,8.22767106001265e-06,0.057256180793047,-9.77138042449951,-0.0857647955417633
1743518883314860032,3.51176349795423e-05,4.82044697491801e-06,8.22767106001265e-06,0.057256180793047,-9.77138042449951,-0.0857647955417633
1743518883320349952,-0.00345554086379707,-0.00174050882924348,-0.00173710158560425,0.05723164247671613,-9.77145620659611,-0.0815586517282271
1743518883325839872,-0.00520086986944079,-0.00348583795130253,-0.00173710158560425,0.057195034520114194,-9.77156926356653,-0.07528363562234448
1743518883331320064,-0.00520086986944079,-0.00348583795130253,8.22767106001265e-06,0.05715849333444104,-9.771682114327161,-0.0690200648057504
1743518883336800000,-0.00345554086379707,-0.00174050882924348,0.00175355689134449,0.05715949202065149,-9.771679030067677,-0.06919125087121096
1743518883342269952,-0.00520086986944079,4.82044697491801e-06,8.22767106001265e-06,0.057196092311315894,-9.771565996772102,-0.07546495294905364
1743518883347739904,3.51176349795423e-05,0.00524080824106932,-0.0034824307076633,0.05723269419732032,-9.771452958549613,-0.08173892848614478
1743518883353199872,-0.0017102116253227,0.00175014964770526,-0.00173710158560425,0.05499866543299635,-9.771308181273143,-0.085760920050094
1743518883358649856,-0.0017102116253227,4.82044697491801e-06,8.22767106001265e-06,0.04868927019942284,-9.771106272982216,-0.08575008866923223
1743518883364100096,-0.00345554086379707,0.00524080824106932,-0.00173710158560425,0.04237987496584933,-9.770904364691289,-0.08573925728837044
1743518883369509888,-0.00345554086379707,4.82044697491801e-06,8.22767106001265e-06,0.03864369669960416,-9.770807868889056,-0.08446572702333442
1743518883374910208,-0.0017102116253227,-0.0052311671897769,-0.0034824307076633,0.04491015919983245,-9.7711226759411,-0.07819910386869074
1743518883380300032,-0.00520086986944079,-0.00348583795130253,8.22767106001265e-06,0.051164725104585695,-9.771436885346203,-0.07194437761451722
1743518883385689856,-0.00345554086379707,4.82044697491801e-06,8.22767106001265e-06,0.05686094015279511,-9.771723044988438,-0.06624801653142791
1743518883391069952,-0.00345554086379707,-0.00174050882924348,0.00175355689134449,0.05059228029003214,-9.771408127547922,-0.07251683710494046
1743518883396440064,3.51176349795423e-05,-0.00348583795130253,8.22767106001265e-06,0.044335010414168055,-9.77109378230395,-0.078774267399547
1743518883401809920,-0.00520086986944079,4.82044697491801e-06,8.22767106001265e-06,0.03807801834286248,-9.770779451015992,-0.08503141988247291
1743518883407170048,-0.00520086986944079,-0.0052311671897769,8.22767106001265e-06,0.04297739921182786,-9.770923486191023,-0.08574028306222717
1743518883412529920,-0.00345554086379707,-0.00348583795130253,8.22767106001265e-06,0.04928155461015437,-9.771125226800876,-0.08575110544782885
1743518883417870080,-0.0017102116253227,-0.00174050882924348,8.22767106001265e-06,0.05556243502524788,-9.771326222583069,-0.08576188787711164
1743518883423219968,-0.00345554086379707,4.82044697491801e-06,-0.0034824307076633,0.057256180793047,-9.77138042449951,-0.0857647955417633
1743518883428549888,-0.00520086986944079,4.82044697491801e-06,8.22767106001265e-06,0.057256180793047,-9.77138042449951,-0.0857647955417633
1743518883433880064,-0.0017102116253227,-0.00348583795130253,-0.00173710158560425,0.057256180793047,-9.77138042449951,-0.0857647955417633
1743518883439200000,-0.00345554086379707,-0.00348583795130253,-0.00173710158560425,0.057256180793047,-9.77138042449951,-0.0857647955417633
1743518883444519936,-0.0017102116253227,4.82044697491801e-06,8.22767106001265e-06,0.057256180793047,-9.77138042449951,-0.0857647955417633
1743518883449830144,3.51176349795423e-05,4.82044697491801e-06,8.22767106001265e-06,0.057256180793047,-9.77138042449951,-0.0857647955417633
1743518883455130112,-0.0017102116253227,4.82044697491801e-06,8.22767106001265e-06,0.05724083620159859,-9.77142781346034,-0.08313455972926027
1743518883460429824,-0.00694619910791516,-0.00174050882924348,8.22767106001265e-06,0.05720420659213695,-9.771540937301651,-0.07685583207933223
1743518883465720064,-0.00520086986944079,-0.00697649642825127,8.22767106001265e-06,0.05716764454369866,-9.771653852493113,-0.07058868514979859
1743518883471000064,-0.00520086986944079,4.82044697491801e-06,8.22767106001265e-06,0.05715026139894012,-9.771707537152547,-0.06760901833810466
1743518883476280064,-0.0017102116253227,4.82044697491801e-06,0.00175355689134449,0.0571868859231472,-9.771594429016114,-0.07388687431812284
1743518883481560064,-0.0017102116253227,4.82044697491801e-06,-0.0034824307076633,0.057223510447354284,-9.77148132087968,-0.08016473029814102
1743518883486820096,-0.0017102116253227,-0.00174050882924348,0.00175355689134449,0.05725234945695133,-9.771392256879459,-0.08510806137960378
1743518883492090112,-0.0017102116253227,4.82044697491801e-06,-0.00173710158560425,0.0572156403745679,-9.771505626158335,-0.07881571117571383
1743518883497339904,-0.0017102116253227,-0.0052311671897769,8.22767106001265e-06,0.0571790707946691,-9.771618564609334,-0.07254727326901565
1743518883502589952,-0.00520086986944079,-0.00348583795130253,8.22767106001265e-06,0.0571425012147703,-9.771731503060332,-0.06627883536231746
1743518883507830016,-0.00345554086379707,-0.00348583795130253,-0.00173710158560425,0.057140689343214,-9.77173709869385,-0.0659682601690292
1743518883513070080,-0.00345554086379707,4.82044697491801e-06,8.22767106001265e-06,0.057140689343214,-9.77173709869385,-0.0659682601690292
1743518883518300160,-0.0017102116253227,4.82044697491801e-06,-0.0034824307076633,0.057140689343214,-9.77173709869385,-0.0659682601690292
1743518883523520000,-0.0017102116253227,4.82044697491801e-06,0.00349888624623418,0.057140689343214,-9.77173709869385,-0.0659682601690292
1743518883528739840,-0.00520086986944079,-0.00174050882924348,-0.00173710158560425,0.057140689343214,-9.77173709869385,-0.0659682601690292
1743518883533950208,-0.0017102116253227,-0.00174050882924348,8.22767106001265e-06,0.057140689343214,-9.77173709869385,-0.0659682601690292
1743518883539150080,-0.0017102116253227,0.00175014964770526,-0.00173710158560425,0.05716401309216709,-9.771665067566188,-0.06996621345338372
1743518883544339968,-0.0017102116253227,4.82044697491801e-06,0.00175355689134449,0.05720058381659344,-9.771552125580525,-0.07623484754499428
1743518883549540096,-0.00520086986944079,0.00175014964770526,8.22767106001265e-06,0.057237226781976715,-9.771438960491896,-0.08251586455032861
1743518883554720000,-0.0017102116253227,-0.00174050882924348,-0.0034824307076633,0.057256180793047,-9.77138042449951,-0.0857647955417633
1743518883559900160,-0.00345554086379707,0.00524080824106932,-0.00173710158560425,0.057256180793047,-9.77138042449951,-0.0857647955417633
1743518883565069824,3.51176349795423e-05,0.00175014964770526,8.22767106001265e-06,0.057256180793047,-9.77138042449951,-0.0857647955417633
1743518883570230016,-0.0017102116253227,0.00175014964770526,8.22767106001265e-06,0.05520896283870748,-9.771351811969824,-0.08373418939473458
1743518883575390208,-0.0017102116253227,4.82044697491801e-06,-0.00173710158560425,0.048883775374643196,-9.77126340926033,-0.07746032660527807
1743518883580569856,-0.00345554086379707,-0.00174050882924348,-0.0034824307076633,0.042534331081141345,-9.771174667530142,-0.07116240381436499
1743518883585740032,-0.00345554086379707,4.82044697491801e-06,8.22767106001265e-06,0.03833170001016333,-9.77111593030286,-0.06699387428953718
1743518883590899968,-0.00694619910791516,-0.00174050882924348,8.22767106001265e-06,0.044668358937402376,-9.77120449334095,-0.07327911545890126
1743518883596060160,-0.00345554086379707,4.82044697491801e-06,-0.00173710158560425,0.05100531065915797,-9.771293060471223,-0.07956464704694981
1743518883601210112,-0.0017102116253227,4.82044697491801e-06,-0.0034824307076633,0.057182123263841284,-9.77137938944936,-0.08569133893997838
1743518883606360064,-0.0017102116253227,-0.00174050882924348,8.22767106001265e-06,0.05083433504620867,-9.771290670864982,-0.07939505878698416
1743518883611500032,-0.00520086986944079,-0.00174050882924348,-0.00173710158560425,0.044498595871026184,-9.771202120681622,-0.07311072990650258
1743518883616630016,3.51176349795423e-05,4.82044697491801e-06,0.00175355689134449,0.03817519961737799,-9.77111374300662,-0.06683864379298515
1743518883621760000,-0.00520086986944079,4.82044697491801e-06,-0.0034824307076633,0.04269452690396668,-9.771176906474816,-0.07132129975500869
1743518883626880000,-0.0017102116253227,4.82044697491801e-06,8.22767106001265e-06,0.04902895105913106,-9.771265438279064,-0.07760432428598192
1743518883632000000,-0.00694619910791516,0.00175014964770526,8.22767106001265e-06,0.055363375214295435,-9.771353970083311,-0.08388734881695514
1743518883637110016,-0.00345554086379707,-0.00174050882924348,-0.00173710158560425,0.057256180793047,-9.77138042449951,-0.0857647955417633
1743518883642210048,3.51176349795423e-05,-0.00174050882924348,8.22767106001265e-06,0.057256180793047,-9.77138042449951,-0.0857647955417633
1743518883647310080,-0.00345554086379707,4.82044697491801e-06,8.22767106001265e-06,0.057256180793047,-9.77138042449951,-0.0857647955417633
1743518883652389888,-0.00345554086379707,-0.00348583795130253,8.22767106001265e-06,0.057256180793047,-9.77138042449951,-0.0857647955417633
1743518883657479936,-0.0017102116253227,-0.00174050882924348,8.22767106001265e-06,0.057256180793047,-9.77138042449951,-0.0857647955417633
1743518883662560000,-0.00345554086379707,4.82044697491801e-06,8.22767106001265e-06,0.057256180793047,-9.77138042449951,-0.0857647955417633
1743518883667630080,-0.0017102116253227,4.82044697491801e-06,8.22767106001265e-06,0.057256180793047,-9.77138042449951,-0.0857647955417633
1743518883672689920,-0.00694619910791516,4.82044697491801e-06,8.22767106001265e-06,0.057256180793047,-9.77138042449951,-0.0857647955417633
1743518883677750016,-0.00345554086379707,-0.00174050882924348,8.22767106001265e-06,0.057256180793047,-9.77138042449951,-0.0857647955417633
1743518883682820096,-0.0017102116253227,0.00175014964770526,8.22767106001265e-06,0.057256180793047,-9.77138042449951,-0.0857647955417633
1743518883687900160,-0.00345554086379707,4.82044697491801e-06,-0.00173710158560425,0.057256180793047,-9.77138042449951,-0.0857647955417633
1743518883692989952,-0.00345554086379707,4.82044697491801e-06,8.22767106001265e-06,0.057256180793047,-9.77138042449951,-0.0857647955417633
1743518883698060032,-0.0017102116253227,4.82044697491801e-06,8.22767106001265e-06,0.057253434155657465,-9.77138890698613,-0.08529399095565159
1743518883703130112,-0.0017102116253227,4.82044697491801e-06,8.22767106001265e-06,0.057216792220846587,-9.771502068892026,-0.07901315060203441
1743518883708189952,-0.00345554086379707,4.82044697491801e-06,8.22767106001265e-06,0.05718022265665702,-9.77161500729451,-0.07274471538807639
1743518883713250048,-0.00520086986944079,0.00175014964770526,-0.00173710158560425,0.05714365309246745,-9.771727945696993,-0.06647628017411839
1743518883718310144,0.00178044685162604,4.82044697491801e-06,8.22767106001265e-06,0.057174402509981084,-9.77163298175175,-0.0717470766909151
1743518883723350016,-0.00520086986944079,4.82044697491801e-06,8.22767106001265e-06,0.05721094181639461,-9.771520136794866,-0.0780103253812425
1743518883728389888,-0.00345554086379707,4.82044697491801e-06,8.22767106001265e-06,0.05724748112280814,-9.771407291837983,-0.08427357407156992
1743518883733430016,-0.00345554086379707,4.82044697491801e-06,8.22767106001265e-06,0.05723935020682901,-9.76653806149304,-0.08556026858507917
1743518883738460160,3.51176349795423e-05,4.82044697491801e-06,8.22767106001265e-06,0.05721730303757362,-9.76019482451859,-0.08529234919279544
1743518883743480064,-0.00520086986944079,4.82044697491801e-06,-0.00173710158560425,0.05719530080282758,-9.753864515745388,-0.08502497584913565
1743518883748500224,-0.00345554086379707,0.00175014964770526,8.22767106001265e-06,0.05719999745865688,-9.755215800373703,-0.08508205007762167
1743518883753509888,-0.00345554086379707,4.82044697491801e-06,8.22767106001265e-06,0.0572220392503624,-9.761557490162085,-0.085349904121385
1743518883758519808,-0.0017102116253227,-0.00348583795130253,8.22767106001265e-06,0.05724408104206793,-9.767899179950469,-0.08561775816514834
1743518883763520000,-0.00520086986944079,-0.0052311671897769,0.00349888624623418,0.057256180793047,-9.77138042449951,-0.0857647955417633
1743518883768510208,-0.0017102116253227,4.82044697491801e-06,8.22767106001265e-06,0.057256180793047,-9.77138042449951,-0.0857647955417633
1743518883773499904,-0.0017102116253227,-0.00174050882924348,-0.00173710158560425,0.057256180793047,-9.77138042449951,-0.0857647955417633
1743518883778480128,-0.00520086986944079,4.82044697491801e-06,8.22767106001265e-06,0.057256180793047,-9.77138042449951,-0.0857647955417633
1743518883783459840,-0.00520086986944079,-0.00348583795130253,8.22767106001265e-06,0.057256180793047,-9.77138042449951,-0.0857647955417633
1743518883788480000,-0.0017102116253227,-0.00174050882924348,-0.00173710158560425,0.057256180793047,-9.77138042449951,-0.0857647955417633
1743518883793489920,-0.0017102116253227,0.00175014964770526,-0.00173710158560425,0.05812532461798502,-9.771408238170462,-0.08576628630448672
1743518883798500096,-0.0017102116253227,4.82044697491801e-06,8.22767106001265e-06,0.06443637794806366,-9.771610199636036,-0.08577711107569268
1743518883803500032,-0.0017102116253227,4.82044697491801e-06,8.22767106001265e-06,0.0707345172544822,-9.77181174783698,-0.08578791369665774
1743518883808489984,3.51176349795423e-05,4.82044697491801e-06,8.22767106001265e-06,0.07702034318950388,-9.772012901994897,-0.08579869519762569
1743518883813479936,-0.00345554086379707,4.82044697491801e-06,-0.00173710158560425,0.0709456501824837,-9.771818504350248,-0.08578827583361336
1743518883818469888,-0.0017102116253227,4.82044697491801e-06,-0.00173710158560425,0.06464392378045783,-9.771616841357837,-0.08577746706003204
1743518883823450112,-0.00520086986944079,4.82044697491801e-06,8.22767106001265e-06,0.05835484298325208,-9.771415583040328,-0.08576667997629737
1743518883828419840,-0.0017102116253227,-0.0052311671897769,-0.00173710158560425,0.05722598295569444,-9.771473684990431,-0.0805885460774575
1743518883833390080,-0.00520086986944079,4.82044697491801e-06,8.22767106001265e-06,0.05718937536570541,-9.771586740828633,-0.07431359281315657
1743518883838360064,-0.0017102116253227,0.00175014964770526,8.22767106001265e-06,0.05715276777571638,-9.771699796666834,-0.06803863954885563
1743518883843319808,-0.00345554086379707,4.82044697491801e-06,8.22767106001265e-06,0.05716523667495367,-9.77166128875481,-0.07017594932518156
1743518883848269824,-0.00345554086379707,4.82044697491801e-06,-0.00173710158560425,0.05720183643808323,-9.77154825708843,-0.07644956097760781
1743518883853220096,3.51176349795423e-05,4.82044697491801e-06,0.00175355689134449,0.05723843620121278,-9.77143522542205,-0.08272317263003406
1743518883858160128,-0.00520086986944079,4.82044697491801e-06,-0.00173710158560425,0.05723733955477608,-9.771438612213755,-0.0825351950783892
1743518883863100160,-0.00345554086379707,-0.00348583795130253,0.00349888624623418,0.0572006969363254,-9.771551776230947,-0.07625423754120961
1743518883868029952,-0.00345554086379707,0.00349547900259495,-0.0034824307076633,0.05716412859345267,-9.771664710861616,-0.06998601167471348
1743518883872950016,-0.0017102116253227,-0.0052311671897769,-0.00173710158560425,0.05715375276173088,-9.771696754717896,-0.06820747724641643
1743518883877880064,-0.00520086986944079,-0.00348583795130253,0.00175355689134449,0.05719034519848137,-9.771583745677697,-0.07447983307494709
1743518883882790144,3.51176349795423e-05,4.82044697491801e-06,-0.0034824307076633,0.057226788986199685,-9.771471195712813,-0.08072670878501384
1743518883887749888,-0.0017102116253227,-0.00174050882924348,8.22767106001265e-06,0.057256180793047,-9.77138042449951,-0.0857647955417633
1743518883892709888,-0.00520086986944079,0.00175014964770526,8.22767106001265e-06,0.057256180793047,-9.77138042449951,-0.0857647955417633
1743518883897659904,-0.00520086986944079,0.00349547900259495,-0.00173710158560425,0.057256180793047,-9.77138042449951,-0.0857647955417633
1743518883902599936,-0.00345554086379707,4.82044697491801e-06,-0.00173710158560425,0.057256180793047,-9.77138042449951,-0.0857647955417633
1743518883907539968,-0.00345554086379707,4.82044697491801e-06,8.22767106001265e-06,0.057256180793047,-9.77138042449951,-0.0857647955417633
1743518883912480000,-0.00345554086379707,0.00175014964770526,8.22767106001265e-06,0.057256180793047,-9.77138042449951,-0.0857647955417633
1743518883917409792,-0.00520086986944079,-0.00174050882924348,8.22767106001265e-06,0.057256180793047,-9.77138042449951,-0.0857647955417633
1743518883922329856,-0.00520086986944079,4.82044697491801e-06,-0.00173710158560425,0.05723656303664766,-9.765736158956546,-0.08552639861599023
1743518883927249920,-0.0017102116253227,0.00175014964770526,8.22767106001265e-06,0.05721452656497727,-9.759395999806548,-0.08525860922182264
1743518883932169984,-0.00345554086379707,0.00175014964770526,8.22767106001265e-06,0.057192490093306875,-9.75305584065655,-0.08499081982765504
1743518883937079808,-0.00520086986944079,0.00175014964770526,8.22767106001265e-06,0.057202798022923974,-9.756021556550499,-0.08511608281297202
1743518883941989888,3.51176349795423e-05,4.82044697491801e-06,8.22767106001265e-06,0.057224860772887125,-9.762369276282822,-0.0853841915435652
1743518883946890240,-0.00345554086379707,0.00175014964770526,0.00175355689134449,0.05724687959875837,-9.768704358523205,-0.08565176650422762
1743518883951780096,-0.0017102116253227,0.00349547900259495,-0.00173710158560425,0.05723507332883882,-9.771445611037578,-0.08214673842645227
1743518883956669952,-0.00345554086379707,-0.00348583795130253,8.22767106001265e-06,0.0571984725433375,-9.771558645861365,-0.07587295152798854
1743518883961560064,-0.00345554086379707,-0.00348583795130253,8.22767106001265e-06,0.05716187175783617,-9.771671680685152,-0.06959916462952478
1743518883966439936,-0.00520086986944079,4.82044697491801e-06,-0.0034824307076633,0.057149959526114756,-9.774404400922307,-0.06608092044859266
1743518883971319808,-0.00520086986944079,-0.00348583795130253,8.22767106001265e-06,0.05717202769355052,-9.780754056890215,-0.06634911428461325
1743518883976190208,3.51176349795423e-05,4.82044697491801e-06,8.22767106001265e-06,0.057194051655647955,-9.787090993691878,-0.0666167708943647
1743518883981050112,-0.00345554086379707,4.82044697491801e-06,-0.00173710158560425,0.05557034572849426,-9.790012090281941,-0.06837780365973767
1743518883985969920,-0.00345554086379707,4.82044697491801e-06,-0.0034824307076633,0.0492673342226568,-9.783336195277725,-0.07439022476565943
1743518883990880000,-0.00345554086379707,0.00175014964770526,8.22767106001265e-06,0.04297715109844587,-9.776673887576772,-0.08039040892224755
1743518883995780096,-0.0017102116253227,4.82044697491801e-06,8.22767106001265e-06,0.03737482239302619,-9.770756559259219,-0.0850515616987834
1743518884000679936,-0.0017102116253227,-0.00348583795130253,0.00524421548470855,0.037338194198264216,-9.770869678731486,-0.07877307654430621
1743518884005580032,-0.00520086986944079,4.82044697491801e-06,8.22767106001265e-06,0.037301566003502235,-9.770982798203754,-0.07249459138982901
1743518884010469888,-0.0017102116253227,4.82044697491801e-06,8.22767106001265e-06,0.0372650126619993,-9.771095686505436,-0.0662289369270844
1743518884015360000,-0.00345554086379707,4.82044697491801e-06,8.22767106001265e-06,0.04329545916551121,-9.77734517064038,-0.06620006938297072
1743518884020240128,-0.00345554086379707,4.82044697491801e-06,0.00175355689134449,0.04961216748307169,-9.783883885832365,-0.06647854651620043
1743518884025120000,-0.00345554086379707,4.82044697491801e-06,8.22767106001265e-06,0.055928875800632175,-9.790422601024348,-0.06675702364943013
1743518884029989888,-0.00345554086379707,4.82044697491801e-06,-0.0034824307076633,0.05722184520250936,-9.78660382078006,-0.07160067951512701
1743518884034859776,-0.00345554086379707,4.82044697491801e-06,8.22767106001265e-06,0.05723641060659903,-9.780145946749894,-0.07760919925428245
1743518884039719936,3.51176349795423e-05,4.82044697491801e-06,8.22767106001265e-06,0.057250946774344454,-9.773701035259394,-0.08360565841822463
1743518884044580096,-0.0017102116253227,-0.00174050882924348,8.22767106001265e-06,0.05723273633607544,-9.771452828411784,-0.0817461515434138
1743518884049440000,-0.00520086986944079,4.82044697491801e-06,-0.0034824307076633,0.057196099429382065,-9.771565974789258,-0.07546617306577227
1743518884054290176,-0.00345554086379707,4.82044697491801e-06,0.00175355689134449,0.057159536213484144,-9.771678893586206,-0.06919882602050825
1743518884059129856,3.51176349795423e-05,4.82044697491801e-06,-0.00173710158560425,0.05715838623906644,-9.771682445071615,-0.06900170745224328
1743518884063970048,3.51176349795423e-05,4.82044697491801e-06,8.22767106001265e-06,0.05719499360433038,-9.771569389927436,-0.07527662219613254
1743518884068809984,-0.0017102116253227,4.82044697491801e-06,-0.00173710158560425,0.057231599166364666,-9.7714563403522,-0.0815512278461474
1743518884073640192,-0.00345554086379707,4.82044697491801e-06,8.22767106001265e-06,0.057256180793047,-9.77138042449951,-0.0857647955417633
1743518884078469888,-0.0017102116253227,-0.00174050882924348,8.22767106001265e-06,0.057256180793047,-9.77138042449951,-0.0857647955417633
1743518884083290112,-0.0017102116253227,4.82044697491801e-06,8.22767106001265e-06,0.057256180793047,-9.77138042449951,-0.0857647955417633
1743518884088169984,-0.00345554086379707,4.82044697491801e-06,-0.00173710158560425,0.057256180793047,-9.77138042449951,-0.0857647955417633
1743518884093039872,-0.00520086986944079,4.82044697491801e-06,-0.0034824307076633,0.057256180793047,-9.77138042449951,-0.0857647955417633
1743518884097910016,-0.00345554086379707,4.82044697491801e-06,8.22767106001265e-06,0.057256180793047,-9.77138042449951,-0.0857647955417633
1743518884102770176,-0.00345554086379707,-0.00348583795130253,8.22767106001265e-06,0.057256180793047,-9.77138042449951,-0.0857647955417633
1743518884107630080,-0.0017102116253227,4.82044697491801e-06,8.22767106001265e-06,0.057256180793047,-9.77138042449951,-0.0857647955417633
1743518884112489984,-0.0017102116253227,4.82044697491801e-06,-0.00173710158560425,0.057256180793047,-9.77138042449951,-0.0857647955417633
1743518884117340160,3.51176349795423e-05,0.00175014964770526,0.00175355689134449,0.057256180793047,-9.77138042449951,-0.0857647955417633
1743518884122190080,-0.00345554086379707,-0.00174050882924348,-0.00173710158560425,0.057256180793047,-9.77138042449951,-0.0857647955417633
1743518884127030016,-0.00520086986944079,-0.00174050882924348,-0.00173710158560425,0.057256180793047,-9.77138042449951,-0.0857647955417633
1743518884131869952,-0.00520086986944079,-0.00174050882924348,8.22767106001265e-06,0.057256180793047,-9.77138042449951,-0.0857647955417633
1743518884136699904,3.51176349795423e-05,-0.00348583795130253,8.22767106001265e-06,0.06164903684490577,-9.76708316889512,-0.08558489502206414
1743518884141530112,-0.0017102116253227,4.82044697491801e-06,-0.00173710158560425,0.0679268917231935,-9.760941937145024,-0.08532779819442692
1743518884146359808,-0.0017102116253227,4.82044697491801e-06,8.22767106001265e-06,0.07420443672168073,-9.754801008530904,-0.0850707140572891
1743518884151180032,-0.00345554086379707,4.82044697491801e-06,-0.0034824307076633,0.07362985785788137,-9.755405088507885,-0.08168113319799536
1743518884156000000,-0.0017102116253227,4.82044697491801e-06,-0.00173710158560425,0.06731219750816347,-9.761662535212446,-0.07566090271597012
1743518884160809984,-0.0017102116253227,-0.00348583795130253,-0.00173710158560425,0.061007349983650275,-9.76790729121089,-0.06965288184265891
1743518884165619968,-0.00345554086379707,-0.00174050882924348,8.22767106001265e-06,0.05714632529978972,-9.769237758101461,-0.06829357814635834
1743518884170429952,-0.00345554086379707,-0.00174050882924348,-0.00173710158560425,0.05716089845897435,-9.762775095052136,-0.07430626269834988
1743518884175229952,-0.0017102116253227,4.82044697491801e-06,-0.0034824307076633,0.05717544200085321,-9.756325566194594,-0.08030672755833033
1743518884180030208,-0.00520086986944079,4.82044697491801e-06,0.00175355689134449,0.057183285199734576,-9.752847394374955,-0.08354272327859241
1743518884184869888,-0.00345554086379707,-0.00174050882924348,-0.00173710158560425,0.05716873611273968,-9.759299382288633,-0.0775399705801903
1743518884189719808,-0.0017102116253227,-0.00174050882924348,0.00175355689134449,0.05715415692418548,-9.76576471914282,-0.07152479839344665
1743518884194560000,-0.0017102116253227,4.82044697491801e-06,8.22767106001265e-06,0.05714341579583892,-9.771728678544179,-0.0664356048591286
1743518884199399936,-0.00345554086379707,4.82044697491801e-06,8.22767106001265e-06,0.057180069430465344,-9.771615480505545,-0.07271845069291537
1743518884204230144,-0.0017102116253227,4.82044697491801e-06,0.00175355689134449,0.057216649035583406,-9.771502511093493,-0.07898860703511663
1743518884209059840,-0.0017102116253227,0.00175014964770526,-0.0034824307076633,0.057253226835103706,-9.771389547257698,-0.08525845387752315
1743518884213880064,-0.00345554086379707,4.82044697491801e-06,0.00349888624623418,0.057256180793047,-9.77138042449951,-0.0857647955417633
1743518884218700032,-0.0017102116253227,4.82044697491801e-06,-0.00173710158560425,0.057256180793047,-9.77138042449951,-0.0857647955417633
1743518884223520000,-0.00345554086379707,4.82044697491801e-06,8.22767106001265e-06,0.057256180793047,-9.77138042449951,-0.0857647955417633
1743518884228329984,3.51176349795423e-05,-0.00174050882924348,-0.00173710158560425,0.062020825800207,-9.77161978508476,-0.08100002029893424
1743518884233139968,-0.00345554086379707,4.82044697491801e-06,8.22767106001265e-06,0.06828274443869654,-9.771934363927013,-0.07473793049865568
1743518884237950208,-0.0017102116253227,4.82044697491801e-06,-0.00173710158560425,0.07454466307718609,-9.772248942769265,-0.0684758406983771
1743518884242749952,-0.0017102116253227,4.82044697491801e-06,8.22767106001265e-06,0.07323294142023264,-9.772183046052296,-0.06978759820961715
1743518884247549952,-0.00345554086379707,4.82044697491801e-06,-0.00173710158560425,0.06696752678989062,-9.771868291582551,-0.07605318409730678
1743518884252350208,-0.00345554086379707,4.82044697491801e-06,-0.00173710158560425,0.06070211215954861,-9.771553537112807,-0.08231876998499643
1743518884257139968,-0.00520086986944079,4.82044697491801e-06,8.22767106001265e-06,0.05442619240676981,-9.771289861442789,-0.08575993728183325
1743518884261920000,-0.0017102116253227,-0.00174050882924348,-0.00173710158560425,0.048133807228055,-9.771088497494222,-0.08574913510224605
1743518884266710016,-0.00869152881205082,-0.00174050882924348,8.22767106001265e-06,0.0418282403356634,-9.77088671171485,-0.08573831029352309
1743518884271490048,0.00178044685162604,4.82044697491801e-06,8.22767106001265e-06,0.037368055155795256,-9.770777458632208,-0.08389158101266524
1743518884276259840,-0.00520086986944079,4.82044697491801e-06,8.22767106001265e-06,0.03733150089137687,-9.770890349784148,-0.07762576835181663
1743518884281039872,-0.0017102116253227,0.00175014964770526,-0.00173710158560425,0.037294868058860425,-9.771003483579271,-0.0713464882339843
1743518884285809920,-0.00345554086379707,0.00349547900259495,-0.00522775994613767,0.03813084055253588,-9.771978443376904,-0.06682821229468972
1743518884290569984,3.51176349795423e-05,-0.00174050882924348,8.22767106001265e-06,0.04448468886318188,-9.778404781766952,-0.07337634987481466
1743518884295330048,-0.0017102116253227,0.00349547900259495,-0.00173710158560425,0.050838537173827886,-9.784831120156998,-0.0799244874549396
1743518884300090112,-0.0017102116253227,4.82044697491801e-06,8.22767106001265e-06,0.05719238548447389,-9.791257458547046,-0.08647262503506453
1743518884304840192,-0.00345554086379707,-0.00348583795130253,8.22767106001265e-06,0.05726832940133107,-9.78529502607819,-0.08020670497386921
1743518884309590016,-0.0017102116253227,4.82044697491801e-06,8.22767106001265e-06,0.057209693673556244,-9.779066738885074,-0.07366579935356836
1743518884314340096,-0.00345554086379707,-0.00348583795130253,0.00175355689134449,0.057151057945781424,-9.772838451691959,-0.06712489373326751
1743518884319080192,-0.00520086986944079,0.00175014964770526,8.22767106001265e-06,0.05717079770116527,-9.771644114543674,-0.07112917185607694
1743518884323820032,-0.0017102116253227,4.82044697491801e-06,8.22767106001265e-06,0.057207390454828866,-9.771531104524747,-0.07740158200708538
1743518884328560128,-0.00345554086379707,4.82044697491801e-06,8.22767106001265e-06,0.057243983208492465,-9.771418094505819,-0.08367399215809382
1743518884333289984,-0.00520086986944079,4.82044697491801e-06,-0.0034824307076633,0.0572464751311374,-9.775683631029565,-0.0817610163945199
1743518884338010112,3.51176349795423e-05,4.82044697491801e-06,8.22767106001265e-06,0.057231932065074397,-9.782131601032253,-0.07576171153696783
1743518884342739968,-0.00345554086379707,-0.00174050882924348,-0.00173710158560425,0.05721735814540859,-9.788593250619732,-0.06974967895278963
1743518884347460096,-0.0017102116253227,-0.0052311671897769,0.00175355689134449,0.05719897610096233,-9.788507900359368,-0.06667661754375137
1743518884352169984,-0.00520086986944079,-0.00348583795130253,-0.00173710158560425,0.05717696101771054,-9.782173518260782,-0.06640906883836857
1743518884356889856,-0.0017102116253227,4.82044697491801e-06,0.00175355689134449,0.057154899129422225,-9.775825668986892,-0.06614095131265542
1743518884361600000,-0.0017102116253227,0.00175014964770526,8.22767106001265e-06,0.0571615115803879,-9.773948836793533,-0.0682910127522501
1743518884366300160,-0.00345554086379707,-0.00174050882924348,8.22767106001265e-06,0.05722011945926373,-9.780174165876506,-0.07482881178503377
1743518884371000064,-0.00520086986944079,4.82044697491801e-06,-0.00173710158560425,0.057278724365233055,-9.78639917917734,-0.081366279185524
1743518884375699968,-0.00345554086379707,-0.00174050882924348,-0.00173710158560425,0.057314103454969755,-9.790157146203134,-0.08531287106187181
1743518884380389888,3.51176349795423e-05,0.00175014964770526,8.22767106001265e-06,0.057255466085097,-9.783928684586371,-0.07877178226302167
1743518884385080064,0.00178044685162604,0.00349547900259495,-0.0034824307076633,0.057196825734319875,-9.777699906337938,-0.07223036093970409
1743518884389769984,-0.00520086986944079,4.82044697491801e-06,8.22767106001265e-06,0.057140689343214,-9.77173709869385,-0.0659682601690292
1743518884394449920,-0.00345554086379707,4.82044697491801e-06,-0.00173710158560425,0.057140689343214,-9.77173709869385,-0.0659682601690292
1743518884399130112,-0.00345554086379707,4.82044697491801e-06,8.22767106001265e-06,0.057140689343214,-9.77173709869385,-0.0659682601690292
1743518884403810048,-0.00520086986944079,-0.00348583795130253,0.00175355689134449,0.057140689343214,-9.77173709869385,-0.0659682601690292
1743518884408480000,-0.00345554086379707,4.82044697491801e-06,0.00349888624623418,0.051586551896918784,-9.771458076576337,-0.07152254000773552
1743518884413139968,-0.00345554086379707,4.82044697491801e-06,-0.00173710158560425,0.045334468821286084,-9.771143991900637,-0.07777478336913575
1743518884417809920,3.51176349795423e-05,-0.00348583795130253,8.22767106001265e-06,0.039069271276907805,-9.77082924839593,-0.08404014153549953
1743518884422470144,-0.00520086986944079,4.82044697491801e-06,-0.00173710158560425,0.04196344970782284,-9.766259435561501,-0.08554292320199056
1743518884427119872,-0.00520086986944079,4.82044697491801e-06,0.00349888624623418,0.04823332770035624,-9.760126010559087,-0.0852861626299059
1743518884431780096,-0.00520086986944079,-0.00348583795130253,8.22767106001265e-06,0.054517029450961665,-9.753979062648654,-0.08502883595493453
1743518884436419840,3.51176349795423e-05,4.82044697491801e-06,-0.00173710158560425,0.05719925200852414,-9.75500132536379,-0.08507299129351073
1743518884441070080,-0.0017102116253227,4.82044697491801e-06,8.22767106001265e-06,0.05722133073219353,-9.7613536409244,-0.08534129413817007
1743518884445709824,-0.00520086986944079,-0.00348583795130253,8.22767106001265e-06,0.05724336077943154,-9.767691951687578,-0.08560900546199675
1743518884450350080,3.51176349795423e-05,0.00175014964770526,8.22767106001265e-06,0.057256180793047,-9.77138042449951,-0.0857647955417633
1743518884454979840,-0.0017102116253227,0.00349547900259495,-0.00173710158560425,0.057256180793047,-9.77138042449951,-0.0857647955417633
1743518884459610112,-0.00520086986944079,4.82044697491801e-06,8.22767106001265e-06,0.057256180793047,-9.77138042449951,-0.0857647955417633
1743518884464240128,-0.0017102116253227,4.82044697491801e-06,-0.00173710158560425,0.057246596322818186,-9.77141002438073,-0.08412190938709181
1743518884468859904,-0.0017102116253227,4.82044697491801e-06,8.22767106001265e-06,0.057210001587916975,-9.771523040518348,-0.0778491596296397
1743518884473479936,-0.00520086986944079,-0.00174050882924348,-0.00173710158560425,0.0571734049644502,-9.771636062488454,-0.0715760861507778
1743518884478099968,-0.00345554086379707,4.82044697491801e-06,8.22767106001265e-06,0.056474776169034846,-9.77170364534385,-0.06663419041534302
1743518884482709760,-0.00345554086379707,4.82044697491801e-06,-0.0034824307076633,0.05020935951562663,-9.771388890831807,-0.07289976769635409
1743518884487309824,-0.00520086986944079,4.82044697491801e-06,0.00175355689134449,0.04395722872116796,-9.771074803758864,-0.07915205877780365
1743518884491919872,-0.0017102116253227,-0.00174050882924348,8.22767106001265e-06,0.037691488022419506,-9.770760032967818,-0.08541796011246257
1743518884496519936,-0.00520086986944079,-0.00174050882924348,-0.00173710158560425,0.04334434172046971,-9.764908596261902,-0.08548637367685202
1743518884501110016,-0.00345554086379707,-0.00174050882924348,8.22767106001265e-06,0.049610308879282285,-9.758778996980714,-0.08522977325906457
1743518884505709824,-0.0017102116253227,4.82044697491801e-06,-0.00173710158560425,0.05588962034795936,-9.75263634380536,-0.08497262637248795
1743518884510289920,-0.00520086986944079,-0.00174050882924348,-0.0034824307076633,0.05720407142449543,-9.756387929568175,-0.08513155731544461
1743518884514880000,-0.0017102116253227,4.82044697491801e-06,8.22767106001265e-06,0.057226135989198505,-9.762736171423105,-0.08539968809893786
1743518884519459840,-0.00345554086379707,4.82044697491801e-06,-0.00173710158560425,0.05724815241803427,-9.769070564007418,-0.0856672339305868
1743518884524039936,-0.00520086986944079,4.82044697491801e-06,8.22767106001265e-06,0.05322443752651938,-9.771324075651231,-0.0817657671809096
1743518884528610048,-0.0017102116253227,4.82044697491801e-06,8.22767106001265e-06,0.0468925690355074,-9.77123557956571,-0.0754852775765799
1743518884533179904,-0.00520086986944079,4.82044697491801e-06,8.22767106001265e-06,0.04056070054449541,-9.771147083480187,-0.06920478797225021
1743518884537750016,3.51176349795423e-05,4.82044697491801e-06,-0.00173710158560425,0.03728087026737223,-9.771046713195044,-0.06894710910473152
1743518884542309888,-0.00520086986944079,-0.00348583795130253,8.22767106001265e-06,0.037317467945639574,-9.770933687967382,-0.07522036338829757
1743518884546870016,-0.0017102116253227,4.82044697491801e-06,8.22767106001265e-06,0.037354065623906925,-9.770820662739721,-0.08149361767186362
1743518884551419904,-0.00345554086379707,-0.00174050882924348,8.22767106001265e-06,0.039413683689105646,-9.77080944297707,-0.08573416520803026
1743518884555980032,-0.0017102116253227,0.00175014964770526,-0.0034824307076633,0.045725634111929696,-9.771011433037149,-0.08574500097540247
1743518884560519936,-0.00345554086379707,4.82044697491801e-06,8.22767106001265e-06,0.05200986290788366,-9.771212535971586,-0.085755789152873
1743518884565069824,-0.00520086986944079,0.00175014964770526,8.22767106001265e-06,0.057252489884929,-9.770318505639441,-0.08571994325943647
1743518884569610240,-0.00520086986944079,-0.00348583795130253,-0.00173710158560425,0.057230435927197246,-9.763973315538319,-0.08545194137291309
1743518884574140160,-0.00345554086379707,-0.00174050882924348,8.22767106001265e-06,0.0572084317683513,-9.757642453178327,-0.08518454464740009
1743518884578680064,-0.0017102116253227,-0.00348583795130253,0.00349888624623418,0.057116768275537584,-9.751436757050215,-0.08485294696743137
1743518884583200000,-0.0017102116253227,4.82044697491801e-06,8.22767106001265e-06,0.05081062455935965,-9.757682793382632,-0.07884368486382126
1743518884587729920,3.51176349795423e-05,-0.00174050882924348,-0.00173710158560425,0.04449051006377041,-9.763942667331147,-0.07282110969932122
1743518884592250112,-0.0017102116253227,4.82044697491801e-06,8.22767106001265e-06,0.03818403370998744,-9.770189033130615,-0.06681153061807088
1743518884596770048,-0.00345554086379707,4.82044697491801e-06,-0.0034824307076633,0.04268269872104112,-9.771176741160598,-0.07130956754989301
1743518884601280000,-0.0017102116253227,0.00175014964770526,8.22767106001265e-06,0.04901460002048902,-9.771265237704661,-0.07759008969644005
1743518884605789952,-0.0017102116253227,4.82044697491801e-06,8.22767106001265e-06,0.05534650131993692,-9.771353734248724,-0.0838706118429871
1743518884610300160,-0.00520086986944079,4.82044697491801e-06,-0.0034824307076633,0.06166248295607871,-9.771521431585978,-0.08577235326791209
1743518884614799872,-0.00345554086379707,4.82044697491801e-06,8.22767106001265e-06,0.06795710504395794,-9.771722867231603,-0.08578314985611464
1743518884619299840,-0.00345554086379707,-0.00174050882924348,8.22767106001265e-06,0.07425172713183717,-9.771924302877226,-0.08579394644431719
1743518884623800064,-0.00345554086379707,4.82044697491801e-06,8.22767106001265e-06,0.07370838115262408,-9.771906915137883,-0.08579301449277074
1743518884628290048,-0.0017102116253227,4.82044697491801e-06,0.00175355689134449,0.06740555882474493,-9.771705217074498,-0.08578220383944829
1743518884632770048,-0.0017102116253227,0.00175014964770526,8.22767106001265e-06,0.06111645865677672,-9.7715039581371,-0.08577141672248874
1743518884637260032,-0.00694619910791516,0.00175014964770526,-0.0034824307076633,0.057241969276879176,-9.771424314164822,-0.0833287815950746
1743518884641740032,3.51176349795423e-05,4.82044697491801e-06,0.00349888624623418,0.057205377251624376,-9.771537321934192,-0.07705649630153838
1743518884646210048,-0.00345554086379707,4.82044697491801e-06,8.22767106001265e-06,0.05716886896098114,-9.771650071104547,-0.07079856406359376
1743518884650690048,3.51176349795423e-05,-0.00174050882924348,8.22767106001265e-06,0.057149131786371495,-9.771711025754113,-0.06741539002012505
1743518884655149824,-0.00345554086379707,-0.00174050882924348,8.22767106001265e-06,0.057185688346951154,-9.771598127510899,-0.0736815962688748
1743518884659620096,-0.0017102116253227,0.00175014964770526,-0.00522775994613767,0.05722232894110854,-9.771484969745366,-0.07996220681938315
1743518884664079872,-0.00520086986944079,-0.00174050882924348,8.22767106001265e-06,0.05678805039353779,-9.770895818999993,-0.08574415694734971
1743518884668539904,-0.00345554086379707,-0.00174050882924348,0.00175355689134449,0.0504605103764722,-9.764345591341405,-0.08546519294034463
1743518884672990208,-0.0017102116253227,4.82044697491801e-06,8.22767106001265e-06,0.044147176628755884,-9.757810069919074,-0.08518685524906595
1743518884677440000,-0.00345554086379707,4.82044697491801e-06,8.22767106001265e-06,0.03783418112554788,-9.751274898645226,-0.0849085324700665
1743518884681890048,-0.0017102116253227,-0.00174050882924348,8.22767106001265e-06,0.03729585838605436,-9.7566593602177,-0.079370240370517
1743518884686330112,-0.0017102116253227,4.82044697491801e-06,-0.00173710158560425,0.037281311636147146,-9.763110311718487,-0.07336845192225819
1743518884690769920,3.51176349795423e-05,0.00349547900259495,-0.00173710158560425,0.037266765667357364,-9.769560916822265,-0.06736698575228152
1743518884695209984,-0.0017102116253227,4.82044697491801e-06,8.22767106001265e-06,0.0420970867173866,-9.771168556472299,-0.07072870739678912
1743518884699640064,-0.0017102116253227,4.82044697491801e-06,8.22767106001265e-06,0.048432469691292265,-9.771257101677282,-0.0770126829663295
1743518884704060160,-0.00345554086379707,-0.00174050882924348,8.22767106001265e-06,0.054753532333412555,-9.771345446737033,-0.08328245440401903
1743518884708489984,3.51176349795423e-05,-0.00174050882924348,8.22767106001265e-06,0.053424292640199336,-9.767413679177363,-0.08559585802882294
1743518884712909824,-0.00520086986944079,4.82044697491801e-06,-0.0034824307076633,0.047104063595213325,-9.760871019788814,-0.08531721634266622
1743518884717319936,-0.0017102116253227,4.82044697491801e-06,8.22767106001265e-06,0.040798152993503076,-9.75434318275823,-0.08503920591767886
1743518884721740032,-0.00345554086379707,4.82044697491801e-06,8.22767106001265e-06,0.042965767614925425,-9.753814341189697,-0.0821954930321524
1743518884726150144,-0.00345554086379707,4.82044697491801e-06,8.22767106001265e-06,0.05556408871671374,-9.760680554516348,-0.07620452391062776
1743518884730550016,-0.00345554086379707,4.82044697491801e-06,-0.00173710158560425,0.0681338035858008,-9.767531177154796,-0.07022715811413444
1743518884734950144,-0.00345554086379707,0.00349547900259495,8.22767106001265e-06,0.0770180821418762,-9.77237319946289,-0.0660023540258408
1743518884739350016,-0.00520086986944079,4.82044697491801e-06,8.22767106001265e-06,0.0770180821418762,-9.77237319946289,-0.0660023540258408
1743518884743740160,-0.00345554086379707,4.82044697491801e-06,8.22767106001265e-06,0.0770180821418762,-9.77237319946289,-0.0660023540258408
1743518884748130048,3.51176349795423e-05,4.82044697491801e-06,0.00175355689134449,0.07615619997897534,-9.77234561818439,-0.06600087571893466
1743518884752520192,-0.0017102116253227,0.00175014964770526,8.22767106001265e-06,0.06985113988144105,-9.772143848585252,-0.06599006123142459
1743518884756900096,-0.00345554086379707,0.00349547900259495,8.22767106001265e-06,0.06356046160784076,-9.771942539221989,-0.06597927141172939
1743518884761280000,-0.00694619910791516,4.82044697491801e-06,8.22767106001265e-06,0.05726978333424047,-9.771741229858726,-0.06596848159203421
1743518884765660160,-0.0017102116253227,0.00175014964770526,8.22767106001265e-06,0.05717661868533528,-9.771626137499988,-0.07212695410915675
1743518884770030080,-0.0017102116253227,4.82044697491801e-06,8.22767106001265e-06,0.05721321693540425,-9.771513110506419,-0.07840030640595556
1743518884774390016,-0.0017102116253227,-0.00348583795130253,8.22767106001265e-06,0.05724973132238724,-9.771400342508633,-0.08465928362520156
1743518884778759936,-0.0017102116253227,4.82044697491801e-06,-0.0034824307076633,0.057256180793047,-9.77138042449951,-0.0857647955417633
1743518884783119872,-0.00345554086379707,4.82044697491801e-06,0.00175355689134449,0.057256180793047,-9.77138042449951,-0.0857647955417633
1743518884787470080,3.51176349795423e-05,4.82044697491801e-06,8.22767106001265e-06,0.057256180793047,-9.77138042449951,-0.0857647955417633
1743518884791830016,-0.00345554086379707,4.82044697491801e-06,8.22767106001265e-06,0.053015517834578564,-9.771321155727207,-0.08155854273282817
1743518884796179968,-0.0017102116253227,4.82044697491801e-06,-0.0034824307076633,0.04667675856231438,-9.771232563334069,-0.075271218261337
1743518884800519936,-0.0017102116253227,0.00349547900259495,8.22767106001265e-06,0.0403525911173692,-9.771144174880666,-0.06899836721422523
1743518884804860160,-0.00520086986944079,0.00349547900259495,-0.0034824307076633,0.04049815831777946,-9.774449555926184,-0.06607674814005504
1743518884809200128,-0.0017102116253227,4.82044697491801e-06,-0.0034824307076633,0.04682163948933451,-9.780995282010721,-0.06635552385996461
1743518884813529856,-0.00694619910791516,0.00175014964770526,8.22767106001265e-06,0.05313053041701738,-9.787525905063037,-0.06663365635731547
1743518884817859840,-0.00520086986944079,-0.00174050882924348,-0.0034824307076633,0.05720243925706339,-9.789504351463382,-0.06671870518524613
1743518884822190080,-0.00520086986944079,4.82044697491801e-06,0.00175355689134449,0.057180359404813426,-9.783151333433333,-0.06645036934399769
1743518884826510080,-0.00520086986944079,4.82044697491801e-06,-0.00173710158560425,0.05715833182839468,-9.776813356685924,-0.06618266880949816
1743518884830830080,-0.0017102116253227,4.82044697491801e-06,8.22767106001265e-06,0.05839701995927029,-9.771777302803068,-0.06597041503695206
1743518884835150080,-0.0017102116253227,4.82044697491801e-06,8.22767106001265e-06,0.06470618138729797,-9.771979203649774,-0.06598123655909569
1743518884839459840,-0.00345554086379707,4.82044697491801e-06,8.22767106001265e-06,0.0710007181241188,-9.772180636488558,-0.06599203299685663
1743518884843770112,-0.0017102116253227,4.82044697491801e-06,8.22767106001265e-06,0.07674156332351534,-9.77235930803843,-0.06627888040250103
1743518884848069888,3.51176349795423e-05,4.82044697491801e-06,-0.00173710158560425,0.07048432757804693,-9.772044964449805,-0.07253628718175738
1743518884852369920,-0.00345554086379707,-0.00348583795130253,8.22767106001265e-06,0.06422674488299464,-9.771730603431536,-0.07879404092008106
1743518884856669952,-0.00520086986944079,-0.00697649642825127,0.00175355689134449,0.057969509137526236,-9.77141625984291,-0.08505144769933741
1743518884860960000,-0.00345554086379707,-0.00174050882924348,8.22767106001265e-06,0.057256180793047,-9.77138042449951,-0.0857647955417633
1743518884865250048,-0.00345554086379707,-0.00348583795130253,8.22767106001265e-06,0.057256180793047,-9.77138042449951,-0.0857647955417633
1743518884869529856,-0.00345554086379707,-0.00348583795130253,-0.00173710158560425,0.057256180793047,-9.77138042449951,-0.0857647955417633
1743518884873810176,-0.00345554086379707,4.82044697491801e-06,8.22767106001265e-06,0.057256180793047,-9.77138042449951,-0.0857647955417633
1743518884878089984,-0.00345554086379707,0.00349547900259495,-0.0034824307076633,0.057256180793047,-9.77138042449951,-0.0857647955417633
1743518884882360064,-0.00345554086379707,-0.00174050882924348,8.22767106001265e-06,0.057256180793047,-9.77138042449951,-0.0857647955417633
1743518884886640128,-0.00520086986944079,0.00175014964770526,8.22767106001265e-06,0.0572351589147637,-9.771445346721121,-0.08216140881799719
1743518884890899968,3.51176349795423e-05,4.82044697491801e-06,0.00175355689134449,0.05719860793196029,-9.771558227738396,-0.0758961586629243
1743518884895160064,-0.0017102116253227,4.82044697491801e-06,8.22767106001265e-06,0.05716205490343109,-9.77167111507352,-0.06963055784740728
1743518884899419904,-0.00520086986944079,4.82044697491801e-06,8.22767106001265e-06,0.057140689343214,-9.77173709869385,-0.0659682601690292
1743518884903680000,-0.0017102116253227,0.00175014964770526,8.22767106001265e-06,0.057140689343214,-9.77173709869385,-0.0659682601690292
1743518884907929856,3.51176349795423e-05,0.00175014964770526,8.22767106001265e-06,0.057140689343214,-9.77173709869385,-0.0659682601690292
1743518884912179968,3.51176349795423e-05,4.82044697491801e-06,8.22767106001265e-06,0.057140689343214,-9.77173709869385,-0.0659682601690292
1743518884916420096,-0.0017102116253227,0.00175014964770526,8.22767106001265e-06,0.057140689343214,-9.77173709869385,-0.0659682601690292
1743518884920659968,-0.00345554086379707,0.00175014964770526,8.22767106001265e-06,0.057140689343214,-9.77173709869385,-0.0659682601690292
1743518884924900096,3.51176349795423e-05,0.00175014964770526,8.22767106001265e-06,0.056488693404430315,-9.771704344501284,-0.0666202728231489
1743518884929129984,-0.00345554086379707,4.82044697491801e-06,8.22767106001265e-06,0.05022232723655378,-9.771389542288668,-0.07288679964297115
1743518884933360128,-0.00345554086379707,-0.00174050882924348,8.22767106001265e-06,0.04395596106867724,-9.771074740076052,-0.07915332646279341
1743518884937580032,-0.0017102116253227,0.00175014964770526,8.22767106001265e-06,0.03770442904458668,-9.77076068308342,-0.0854050187585241
1743518884941800192,3.51176349795423e-05,-0.00174050882924348,8.22767106001265e-06,0.04333894929724795,-9.777057089604197,-0.08004529085851762
1743518884946019840,-0.0017102116253227,4.82044697491801e-06,8.22767106001265e-06,0.0496262875278647,-9.783716384108851,-0.07404782043619348
1743518884950240000,3.51176349795423e-05,4.82044697491801e-06,-0.00173710158560425,0.05591398099540052,-9.79037605486609,-0.0680500111545879
1743518884954449920,-0.0017102116253227,4.82044697491801e-06,8.22767106001265e-06,0.05222255859495052,-9.786466249475636,-0.07157124634998345
1743518884958650112,-0.00345554086379707,-0.00174050882924348,8.22767106001265e-06,0.04595030558961123,-9.779822932631815,-0.07755432702753846
1743518884962850048,-0.0017102116253227,-0.00174050882924348,0.00175355689134449,0.03967840861838703,-9.773179992884938,-0.08353706808536948
1743518884967049984,-0.00345554086379707,0.00175014964770526,8.22767106001265e-06,0.04137237558613221,-9.770872123490612,-0.08573752770746836
1743518884971250176,-0.00520086986944079,0.00524080824106932,8.22767106001265e-06,0.04767793305148457,-9.771073908968308,-0.08574835250000784
1743518884975440128,3.51176349795423e-05,0.00349547900259495,-0.00173710158560425,0.053968456830781934,-9.771275213349837,-0.08575915148411825
1743518884979630080,3.51176349795423e-05,4.82044697491801e-06,-0.00173710158560425,0.057228120401534834,-9.768399825016056,-0.08263473721895168
1743518884983810048,-0.00520086986944079,-0.00348583795130253,-0.00173710158560425,0.057169477561626464,-9.762170730947169,-0.07609329217001454
1743518884987990016,-0.00345554086379707,-0.00348583795130253,8.22767106001265e-06,0.0571108347217181,-9.75594163687828,-0.0695518471210774
1743518884992169984,-0.0017102116253227,4.82044697491801e-06,8.22767106001265e-06,0.06116568757746022,-9.753869782225465,-0.06724612840434051
1743518884996339968,-0.00345554086379707,-0.00348583795130253,8.22767106001265e-06,0.0738115995302566,-9.760496213124977,-0.07380341603030453
1743518885000509952,-0.0017102116253227,4.82044697491801e-06,-0.00173710158560425,0.08645751148305296,-9.76712264402449,-0.08036070365626856
1743518885004669952,3.51176349795423e-05,4.82044697491801e-06,8.22767106001265e-06,0.09596520820282249,-9.77161943770833,-0.08373544775051098
1743518885008840192,3.51176349795423e-05,4.82044697491801e-06,8.22767106001265e-06,0.0895517576483841,-9.765283008161598,-0.07087149490486727
1743518885012989952,3.51176349795423e-05,-0.00174050882924348,8.22767106001265e-06,0.08316947416827694,-9.758977371394666,-0.05807005626606593
1743518885017149952,-0.00345554086379707,0.00175014964770526,8.22767106001265e-06,0.0768337996416457,-9.752837770025744,-0.04542595810695375
1743518885021299968,-0.00694619910791516,4.82044697491801e-06,8.22767106001265e-06,0.07691458278062298,-9.765424166994526,-0.05224364653474985
1743518885025440000,-0.00520086986944079,4.82044697491801e-06,8.22767106001265e-06,0.0769951663633886,-9.777979472157158,-0.059044493427393714
1743518885029590016,-0.0017102116253227,-0.0052311671897769,0.00175355689134449,0.07707594486152373,-9.79056514606068,-0.06586179019158163
1743518885033720064,-0.0017102116253227,0.00175014964770526,8.22767106001265e-06,0.07172325185359339,-9.786703370008437,-0.07196467644699711
1743518885037859840,-0.00520086986944079,4.82044697491801e-06,8.22767106001265e-06,0.0654320867673092,-9.780040018497868,-0.07796581012998033
1743518885041990144,-0.00520086986944079,-0.00174050882924348,8.22767106001265e-06,0.05915577642466345,-9.773392400540164,-0.08395277389353242
1743518885046119936,-0.00520086986944079,4.82044697491801e-06,-0.00173710158560425,0.06162724848014658,-9.771600013014117,-0.08139360837694316
1743518885050240000,3.51176349795423e-05,4.82044697491801e-06,8.22767106001265e-06,0.06788078111536205,-9.771914170570282,-0.07513990480915966
1743518885054359808,-0.00694619910791516,-0.00174050882924348,8.22767106001265e-06,0.07413395187726957,-9.772228309947085,-0.0688865631245755
1743518885058480128,-0.00345554086379707,-0.00174050882924348,8.22767106001265e-06,0.07023349569898153,-9.772094404206557,-0.06937901519430695
1743518885062589952,-0.00520086986944079,4.82044697491801e-06,8.22767106001265e-06,0.05767279318554383,-9.771578254208846,-0.07563042591517684
1743518885066700032,3.51176349795423e-05,4.82044697491801e-06,-0.0034824307076633,0.04511136200854229,-9.771062074268567,-0.0818821992889485
1743518885070810112,-0.00345554086379707,-0.00174050882924348,8.22767106001265e-06,0.03940576665467509,-9.768786539351085,-0.08360947038756031
1743518885074970112,-0.00345554086379707,4.82044697491801e-06,8.22767106001265e-06,0.044742538748172904,-9.763631956304229,-0.07802463204653641
1743518885080729856,3.51176349795423e-05,4.82044697491801e-06,8.22767106001265e-06,0.05213198607777021,-9.756494773141172,-0.0702917050932583
1743518885085720064,-0.00345554086379707,4.82044697491801e-06,8.22767106001265e-06,0.05707948569103903,-9.751698440374474,-0.06655511257057017
1743518885090710016,3.51176349795423e-05,4.82044697491801e-06,8.22767106001265e-06,0.05711605221782419,-9.75158551135246,-0.0728230271392058
1743518885095709952,-0.0017102116253227,-0.00348583795130253,0.00175355689134449,0.05715269387293138,-9.751472350310381,-0.07910381954846693
1743518885100699904,-0.00520086986944079,4.82044697491801e-06,8.22767106001265e-06,0.0576396349640501,-9.751847403501365,-0.08448738500153753
1743518885105690112,-0.00345554086379707,4.82044697491801e-06,8.22767106001265e-06,0.06391881226548989,-9.758498354989525,-0.07849770038677537
1743518885110690048,-0.00345554086379707,4.82044697491801e-06,8.22767106001265e-06,0.07021058992271853,-9.765162652868632,-0.07249599633800365
1743518885115680000,-0.00345554086379707,4.82044697491801e-06,8.22767106001265e-06,0.07648946721568715,-9.771813286585578,-0.06650659790024172
1743518885120670208,-0.00345554086379707,-0.00174050882924348,8.22767106001265e-06,0.0712876031086494,-9.772085318453268,-0.07173298969461334
1743518885125659904,-0.0017102116253227,4.82044697491801e-06,8.22767106001265e-06,0.06503065425188793,-9.771770989277016,-0.07799010957732101
1743518885130660096,-0.00345554086379707,-0.00697649642825127,-0.00173710158560425,0.05876085008427355,-9.771456014290903,-0.0842600851222656
1743518885135649792,-0.00520086986944079,4.82044697491801e-06,8.22767106001265e-06,0.06203623158565696,-9.771533392001622,-0.08577299432467268
1743518885140640000,3.51176349795423e-05,-0.0052311671897769,8.22767106001265e-06,0.06833004531800009,-9.771734801778877,-0.08578378952637708
1743518885145639936,-0.00694619910791516,-0.00174050882924348,8.22767106001265e-06,0.07463618806912134,-9.771936606099887,-0.08579460587491713
1743518885150629888,-0.00345554086379707,4.82044697491801e-06,-0.00173710158560425,0.06954069268594668,-9.771773544051365,-0.08578586035045506
1743518885155620096,-0.00520086986944079,-0.00174050882924348,0.00175355689134449,0.05695306168262345,-9.77137072449686,-0.08576426051068112
1743518885160610048,-0.0017102116253227,-0.00174050882924348,-0.00173710158560425,0.04436603209501945,-9.77096792418839,-0.08574266170291099
1743518885165609984,-0.00345554086379707,-0.00348583795130253,0.00175355689134449,0.04019156382652838,-9.770834336083823,-0.08573550060004825
1743518885170599936,-0.0017102116253227,4.82044697491801e-06,8.22767106001265e-06,0.04648498518183452,-9.771035733191294,-0.08574630455844671
1743518885175590144,-0.0017102116253227,-0.00348583795130253,0.00175355689134449,0.052778707240535724,-9.77123713992164,-0.0857571090330647
1743518885180579840,-0.00345554086379707,4.82044697491801e-06,8.22767106001265e-06,0.05724562292345055,-9.771413030546432,-0.08395505777131308
1743518885185570048,-0.00345554086379707,4.82044697491801e-06,8.22767106001265e-06,0.05720903139991127,-9.771526036766346,-0.07768285847746924
1743518885190570240,-0.0017102116253227,4.82044697491801e-06,-0.00173710158560425,0.05717236644856556,-9.771639269754594,-0.07139807283052736
1743518885195559936,-0.00345554086379707,0.00175014964770526,8.22767106001265e-06,0.05629274307901959,-9.770859310318313,-0.06593087652752765
1743518885200550144,-0.00345554086379707,4.82044697491801e-06,8.22767106001265e-06,0.04997690133183489,-9.764321192631488,-0.06565242826538267
1743518885205539840,-0.00520086986944079,4.82044697491801e-06,8.22767106001265e-06,0.04366136134488656,-9.757783387324867,-0.06537399330702472
1743518885210530048,-0.0017102116253227,-0.00174050882924348,0.00175355689134449,0.03734551959770186,-9.751245269638043,-0.06509554504487974
1743518885215529984,-0.00520086986944079,4.82044697491801e-06,8.22767106001265e-06,0.043374089601407664,-9.757486005512254,-0.06536132827820719
1743518885220519936,-0.0017102116253227,0.00175014964770526,8.22767106001265e-06,0.049693946870139165,-9.764028280040478,-0.06563995357376133
1743518885225509888,3.51176349795423e-05,4.82044697491801e-06,-0.0034824307076633,0.056013502186779474,-9.77057024198989,-0.06591856555707011
1743518885230500096,-0.00345554086379707,0.00349547900259495,8.22767106001265e-06,0.057170734975980714,-9.77164430825892,-0.07111842005292113
1743518885235490048,3.51176349795423e-05,0.00349547900259495,8.22767106001265e-06,0.05720730269673476,-9.77153137554955,-0.07738653928126667
1743518885240480000,-0.0017102116253227,0.00175014964770526,8.22767106001265e-06,0.057243868670344956,-9.771418448235915,-0.08365435902947707
1743518885245479936,3.51176349795423e-05,-0.00348583795130253,-0.0034824307076633,0.05306616040860803,-9.771246338771249,-0.08575760250583477
1743518885250469888,-0.00694619910791516,-0.00697649642825127,8.22767106001265e-06,0.046768642518056985,-9.771044810569688,-0.08574679151488693
1743518885255460096,-0.0017102116253227,0.00349547900259495,-0.00173710158560425,0.040470823728376,-9.770843272738988,-0.08573598000738356
1743518885260449792,-0.00345554086379707,-0.00174050882924348,-0.00173710158560425,0.04378973932938482,-9.770949482116562,-0.08574167280902005
1743518885265440000,-0.0017102116253227,-0.00348583795130253,8.22767106001265e-06,0.05638537336786001,-9.77135255777796,-0.08576328638166215
1743518885270430208,-0.00345554086379707,4.82044697491801e-06,-0.00173710158560425,0.06898100740633521,-9.771755633439358,-0.08578489995430426
1743518885275419904,-0.0017102116253227,0.00349547900259495,8.22767106001265e-06,0.0771335661411285,-9.77201652526855,-0.0857988893985748
1743518885280410112,-0.00520086986944079,4.82044697491801e-06,0.00175355689134449,0.0771335661411285,-9.77201652526855,-0.0857988893985748
1743518885285399808,-0.0017102116253227,-0.00174050882924348,8.22767106001265e-06,0.0771335661411285,-9.77201652526855,-0.0857988893985748
1743518885290390016,-0.0017102116253227,4.82044697491801e-06,-0.00173710158560425,0.0758933322645336,-9.77073264262675,-0.08574421268696682
1743518885295389952,-0.00345554086379707,-0.00174050882924348,0.00175355689134449,0.0695651218932266,-9.764181717351532,-0.08546522842440452
1743518885300379904,-0.0017102116253227,4.82044697491801e-06,8.22767106001265e-06,0.06324928368467883,-9.75764359966471,-0.08518678959862466
1743518885305370112,-0.0017102116253227,4.82044697491801e-06,8.22767106001265e-06,0.0571866221725941,-9.75136756896973,-0.0849195122718811
1743518885310360064,3.51176349795423e-05,-0.00174050882924348,0.00175355689134449,0.0571866221725941,-9.75136756896973,-0.0849195122718811
1743518885315350016,-0.00520086986944079,4.82044697491801e-06,-0.00173710158560425,0.0571866221725941,-9.75136756896973,-0.0849195122718811
1743518885320339968,-0.0017102116253227,4.82044697491801e-06,-0.0034824307076633,0.0571866221725941,-9.75136756896973,-0.0849195122718811
1743518885325329920,-0.0017102116253227,4.82044697491801e-06,0.00175355689134449,0.057206098796913164,-9.756971229108004,-0.08515619414658608
1743518885330319872,-0.00345554086379707,0.00524080824106932,-0.0034824307076633,0.057228136223002456,-9.76331166285585,-0.08542399513894704
1743518885335310080,-0.0017102116253227,4.82044697491801e-06,0.00175355689134449,0.05725017470205301,-9.769652399553372,-0.08569180892699782
1743518885340300032,-0.00345554086379707,4.82044697491801e-06,8.22767106001265e-06,0.05267475999297282,-9.771233813483791,-0.0857569305861318
1743518885345289984,-0.0017102116253227,4.82044697491801e-06,8.22767106001265e-06,0.04637733743125256,-9.771032288332867,-0.08574611975883561
1743518885350279936,-0.00520086986944079,0.00175014964770526,-0.0034824307076633,0.040079613974957226,-9.770830753552952,-0.08573530841499169
1743518885355269888,3.51176349795423e-05,0.00175014964770526,8.22767106001265e-06,0.04097543156928833,-9.7708594208012,-0.08573684627102823
1743518885360260096,-0.0017102116253227,0.00349547900259495,8.22767106001265e-06,0.047273250358969315,-9.771060958631898,-0.0857476577785316
1743518885365250048,-0.0017102116253227,4.82044697491801e-06,-0.0034824307076633,0.0535710691486503,-9.771262496462597,-0.08575846928603498
1743518885370240000,-0.00520086986944079,-0.00174050882924348,-0.00173710158560425,0.057256180793047,-9.77138042449951,-0.0857647955417633
1743518885375229952,-0.0017102116253227,4.82044697491801e-06,-0.0034824307076633,0.057256180793047,-9.77138042449951,-0.0857647955417633
1743518885380219904,-0.00520086986944079,0.00349547900259495,0.00175355689134449,0.057256180793047,-9.77138042449951,-0.0857647955417633
1743518885385210112,-0.00345554086379707,0.00349547900259495,8.22767106001265e-06,0.057256180793047,-9.77138042449951,-0.0857647955417633
1743518885390199808,-0.00345554086379707,0.00175014964770526,8.22767106001265e-06,0.057256180793047,-9.77138042449951,-0.0857647955417633
1743518885395190016,3.51176349795423e-05,0.00175014964770526,-0.00173710158560425,0.057256180793047,-9.77138042449951,-0.0857647955417633
1743518885400180224,3.51176349795423e-05,0.00524080824106932,-0.0034824307076633,0.05790862867136665,-9.771413201402252,-0.08511232982958912
1743518885405159936,-0.0017102116253227,-0.00174050882924348,0.00175355689134449,0.0641569912731377,-9.771727099232407,-0.0788637964365665
1743518885410150144,-0.0017102116253227,0.00175014964770526,8.22767106001265e-06,0.07041821735898383,-9.772041643283023,-0.07260239920786142
1743518885415139840,-0.00345554086379707,0.00175014964770526,-0.0034824307076633,0.07667914429403752,-9.772356172305253,-0.0663413011381257
1743518885420130048,-0.0017102116253227,4.82044697491801e-06,8.22767106001265e-06,0.07109579390386876,-9.772075682569914,-0.07192480414226099
1743518885425120000,-0.00520086986944079,-0.00174050882924348,8.22767106001265e-06,0.06483456781802263,-9.7717611385193,-0.07818620137096607
1743518885430109952,-0.00520086986944079,-0.00348583795130253,-0.00522775994613767,0.058573640882968944,-9.771446609497069,-0.08444729944070181
1743518885435100160,-0.0017102116253227,-0.00174050882924348,8.22767106001265e-06,0.057256180793047,-9.77138042449951,-0.0857647955417633
1743518885440089856,-0.00345554086379707,4.82044697491801e-06,8.22767106001265e-06,0.057256180793047,-9.77138042449951,-0.0857647955417633
1743518885445080064,3.51176349795423e-05,4.82044697491801e-06,8.22767106001265e-06,0.057256180793047,-9.77138042449951,-0.0857647955417633
1743518885450059776,-0.00520086986944079,4.82044697491801e-06,8.22767106001265e-06,0.05727013503542126,-9.775395467371892,-0.08593438106815615
1743518885455049984,-0.0017102116253227,-0.00174050882924348,0.00175355689134449,0.05729217082030834,-9.781735805935265,-0.08620218135994748
1743518885460040192,-0.00520086986944079,4.82044697491801e-06,8.22767106001265e-06,0.057314206605195414,-9.788076144498637,-0.08646998165173879
1743518885465029888,-0.0017102116253227,4.82044697491801e-06,8.22767106001265e-06,0.05731521574343869,-9.7883665030292,-0.08648224568124316
1743518885470020096,-0.0017102116253227,4.82044697491801e-06,8.22767106001265e-06,0.057293165605818264,-9.78202203476547,-0.08621427096107553
1743518885475009792,3.51176349795423e-05,4.82044697491801e-06,8.22767106001265e-06,0.057271116521716126,-9.775677869629702,-0.0859463090442868
1743518885480000000,-0.00520086986944079,-0.00174050882924348,-0.00173710158560425,0.057244367139789976,-9.771416908804312,-0.08373980230700803
1743518885484980224,-0.00520086986944079,-0.0052311671897769,8.22767106001265e-06,0.05720782581160506,-9.771529760005064,-0.0774762070622919
1743518885489969920,-0.0017102116253227,-0.00174050882924348,0.00175355689134449,0.05717121275829301,-9.77164283271574,-0.07120031732288822
1743518885494960128,-0.0017102116253227,0.00175014964770526,8.22767106001265e-06,0.05609906185546655,-9.7716847706573,-0.0670099143611661
1743518885499949824,-0.0017102116253227,-0.0052311671897769,8.22767106001265e-06,0.04983822851512586,-9.77137024639626,-0.07327090821160642
1743518885504940032,-0.00345554086379707,0.00175014964770526,-0.0034824307076633,0.04357709602846472,-9.771055707107065,-0.07953220121603646
1743518885509920000,-0.00520086986944079,4.82044697491801e-06,-0.0034824307076633,0.037429066392447224,-9.770745932819331,-0.08573075820228578
1743518885514909952,-0.0017102116253227,4.82044697491801e-06,8.22767106001265e-06,0.04373089179228251,-9.77094759886641,-0.08574157658796351
1743518885519900160,-0.00345554086379707,0.00175014964770526,8.22767106001265e-06,0.05003271719211779,-9.771149264913488,-0.08575239497364125
1743518885524889856,3.51176349795423e-05,4.82044697491801e-06,-0.00173710158560425,0.05633424150139408,-9.771350921325302,-0.08576321284243482
1743518885529880064,-0.00520086986944079,4.82044697491801e-06,-0.00522775994613767,0.057224942506252936,-9.771476898228006,-0.08041020132377946
1743518885534859776,-0.00345554086379707,0.00349547900259495,8.22767106001265e-06,0.057188426158801195,-9.77158967228034,-0.07415088805810738
1743518885539849984,-0.0017102116253227,0.00175014964770526,8.22767106001265e-06,0.05715183463526192,-9.771702678500255,-0.06787868876426353
1743518885544840192,-0.0017102116253227,4.82044697491801e-06,8.22767106001265e-06,0.05278384467192529,-9.771518224739504,-0.07032521653752086
1743518885549819904,-0.00345554086379707,4.82044697491801e-06,8.22767106001265e-06,0.04653160045006289,-9.77120413196833,-0.07657762104928212
1743518885554810112,-0.0017102116253227,-0.00348583795130253,8.22767106001265e-06,0.04026648475304656,-9.770889392575375,-0.08284289736618562
1743518885559799808,3.51176349795423e-05,4.82044697491801e-06,-0.00173710158560425,0.04074406423350221,-9.767493929157018,-0.08220896545705382
1743518885564790016,-0.00345554086379707,0.00349547900259495,8.22767106001265e-06,0.04698722233091873,-9.761463902705822,-0.07567561006906438
1743518885569769984,-0.0017102116253227,4.82044697491801e-06,-0.00173710158560425,0.053217852351885586,-9.755445976642156,-0.06915536509322477
1743518885574759936,-0.0017102116253227,0.00349547900259495,8.22767106001265e-06,0.05707957136180582,-9.754152716999213,-0.06522554838381825
1743518885579750144,-0.0017102116253227,4.82044697491801e-06,8.22767106001265e-06,0.057101623861519187,-9.760497487610841,-0.06549353255235765
1743518885584729856,-0.0017102116253227,-0.00174050882924348,8.22767106001265e-06,0.057123631055093625,-9.7668292230989,-0.06576096615619341
1743518885589720064,-0.00345554086379707,4.82044697491801e-06,8.22767106001265e-06,0.0557168395740222,-9.770228946668862,-0.06732646294131026
1743518885594710016,-0.00345554086379707,4.82044697491801e-06,-0.0034824307076633,0.0494296717113251,-9.7635695327695,-0.07332375914887199
1743518885599699968,-0.0017102116253227,0.00349547900259495,8.22767106001265e-06,0.043142804238874656,-9.756910437045669,-0.07932076881576447
1743518885604679936,3.51176349795423e-05,4.82044697491801e-06,0.00349888624623418,0.038192206068103994,-9.751212701523302,-0.084465498661922
1743518885609669888,-0.0017102116253227,4.82044697491801e-06,-0.00173710158560425,0.05078069189843674,-9.75807355452683,-0.07847920657689422
1743518885614650112,-0.0017102116253227,4.82044697491801e-06,8.22767106001265e-06,0.06334451683149567,-9.764920967090147,-0.07250464166351754
1743518885619640064,3.51176349795423e-05,0.00175014964770526,8.22767106001265e-06,0.07593360414712777,-9.771782147909288,-0.06651806354991291
1743518885624630016,3.51176349795423e-05,4.82044697491801e-06,-0.00173710158560425,0.07129288408683504,-9.772085583752787,-0.0717277085720787
1743518885629609984,-0.00345554086379707,-0.00174050882924348,-0.00173710158560425,0.06504024699733908,-9.771771471185986,-0.07798051656966405
1743518885634599936,-0.0017102116253227,-0.00348583795130253,8.22767106001265e-06,0.05877533692236489,-9.771456742063496,-0.08424559788819448
1743518885639590144,-0.00520086986944079,-0.00174050882924348,8.22767106001265e-06,0.057256180793047,-9.77138042449951,-0.0857647955417633
1743518885644570112,3.51176349795423e-05,4.82044697491801e-06,8.22767106001265e-06,0.057256180793047,-9.77138042449951,-0.0857647955417633
1743518885649560064,3.51176349795423e-05,4.82044697491801e-06,8.22767106001265e-06,0.057256180793047,-9.77138042449951,-0.0857647955417633
1743518885654540032,-0.00345554086379707,0.00349547900259495,8.22767106001265e-06,0.05727811993498336,-9.771312669477075,-0.08952541441820497
1743518885659529984,-0.00345554086379707,-0.00348583795130253,-0.00697308918461204,0.057314732988295376,-9.771199596766403,-0.09580130888156894
1743518885664519936,-0.0017102116253227,-0.0052311671897769,8.22767106001265e-06,0.05735134779100074,-9.77108651865305,-0.10207750321088273
1743518885669500160,-0.00520086986944079,0.00175014964770526,-0.00173710158560425,0.05733921833500439,-9.771123978256783,-0.09999837835814716
1743518885674489856,-0.00345554086379707,-0.00348583795130253,8.22767106001265e-06,0.057265946723577564,-9.77135026421138,-0.08743879411669461
1743518885679470080,3.51176349795423e-05,-0.00348583795130253,8.22767106001265e-06,0.057192818651549106,-9.77157610687083,-0.07490381415418035
1743518885684460032,-0.00345554086379707,4.82044697491801e-06,-0.00173710158560425,0.05715125392962288,-9.771704471903282,-0.0677791492767868
1743518885689440000,-0.0017102116253227,0.00175014964770526,-0.00173710158560425,0.057187795257807796,-9.771591620702528,-0.07404274452150293
1743518885694430208,-0.00345554086379707,4.82044697491801e-06,8.22767106001265e-06,0.05722441006051319,-9.771478542589174,-0.0803189341266307
1743518885699419904,-0.00520086986944079,4.82044697491801e-06,8.22767106001265e-06,0.05809012954173576,-9.771407111884752,-0.08576622593759897
1743518885704400128,-0.0017102116253227,-0.00348583795130253,8.22767106001265e-06,0.06438330926088706,-9.771608501372803,-0.08577702005183868
1743518885709389824,-0.00345554086379707,4.82044697491801e-06,8.22767106001265e-06,0.07068884154459626,-9.771810286158107,-0.08578783535329994
1743518885714370048,-0.00345554086379707,4.82044697491801e-06,0.00175355689134449,0.07698202126374756,-9.772011675646159,-0.08579862946753963
1743518885719360000,-0.00520086986944079,-0.00348583795130253,8.22767106001265e-06,0.07098328591111501,-9.771819708739836,-0.08578834038672839
1743518885724339968,-0.00345554086379707,4.82044697491801e-06,-0.00173710158560425,0.06469450619973831,-9.771618460057441,-0.08577755381941865
1743518885729330176,-0.00345554086379707,4.82044697491801e-06,8.22767106001265e-06,0.058392779797712444,-9.771416797065031,-0.08576674504583734
1743518885734309888,-0.00345554086379707,4.82044697491801e-06,-0.00173710158560425,0.052100639242818506,-9.771215440924273,-0.08575594498921238
1743518885739300096,-0.0017102116253227,4.82044697491801e-06,8.22767106001265e-06,0.045794802131651935,-9.771013646497574,-0.08574511971660306
1743518885744280064,-0.00345554086379707,0.00175014964770526,-0.00173710158560425,0.03950161887422014,-9.77081225700952,-0.0857343161669488
1743518885749270016,3.51176349795423e-05,-0.00174050882924348,8.22767106001265e-06,0.04156148549290365,-9.770878175236724,-0.0857378523537061
1743518885754249984,-0.00520086986944079,0.00175014964770526,8.22767106001265e-06,0.04785466875033544,-9.771079564724776,-0.08574865590336035
1743518885759239936,-0.0017102116253227,0.00175014964770526,8.22767106001265e-06,0.05416020457927023,-9.77128134951008,-0.08575948065875645
1743518885764219904,3.51176349795423e-05,0.00175014964770526,8.22767106001265e-06,0.057256180793047,-9.77138042449951,-0.0857647955417633
1743518885769200128,-0.00345554086379707,-0.00174050882924348,8.22767106001265e-06,0.057256180793047,-9.77138042449951,-0.0857647955417633
1743518885774189824,-0.00345554086379707,-0.0052311671897769,8.22767106001265e-06,0.057256180793047,-9.77138042449951,-0.0857647955417633
1743518885779170048,-0.0017102116253227,-0.00174050882924348,8.22767106001265e-06,0.057256180793047,-9.77138042449951,-0.0857647955417633
1743518885784160000,-0.0017102116253227,4.82044697491801e-06,8.22767106001265e-06,0.057256180793047,-9.77138042449951,-0.0857647955417633
1743518885789139968,-0.00345554086379707,4.82044697491801e-06,8.22767106001265e-06,0.057256180793047,-9.77138042449951,-0.0857647955417633
1743518885794130176,-0.00520086986944079,4.82044697491801e-06,0.00175355689134449,0.05724905808802297,-9.771402421669688,-0.08454388367199574
1743518885799109888,-0.00520086986944079,-0.00174050882924348,0.00175355689134449,0.057212495802489195,-9.771515337593375,-0.0782766961016258
1743518885804090112,-0.0017102116253227,-0.00348583795130253,8.22767106001265e-06,0.05717593176647495,-9.771628258923101,-0.07200920847918661
1743518885809079808,-0.0017102116253227,0.00175014964770526,8.22767106001265e-06,0.0573805099547657,-9.771744773245386,-0.06596867151118425
1743518885814060032,-0.00520086986944079,4.82044697491801e-06,8.22767106001265e-06,0.06367369203277068,-9.771946162733437,-0.06597946562542399
1743518885819049984,-0.00520086986944079,4.82044697491801e-06,8.22767106001265e-06,0.06997952796213894,-9.772147957160138,-0.06599028144364678
1743518885824029952,-0.0017102116253227,4.82044697491801e-06,8.22767106001265e-06,0.07627240875796859,-9.772349337006794,-0.06600107504112501
1743518885829009920,-0.0017102116253227,4.82044697491801e-06,8.22767106001265e-06,0.06598752788478641,-9.771819059612014,-0.0770332045910507
1743518885834000128,-0.00345554086379707,-0.00174050882924348,-0.00173710158560425,0.053449131067272185,-9.771189170561948,-0.08957193822108617
1743518885838979840,3.51176349795423e-05,-0.00348583795130253,8.22767106001265e-06,0.04093649397566112,-9.77056057559832,-0.10208491143324819
1743518885843960064,-0.00520086986944079,0.00349547900259495,-0.00173710158560425,0.042029716351758825,-9.770615495580895,-0.1009916618279147
1743518885848950016,-0.00345554086379707,0.00175014964770526,-0.00173710158560425,0.04829852080325327,-9.770930420285088,-0.09472269193506799
1743518885853929984,-0.00345554086379707,0.00175014964770526,8.22767106001265e-06,0.054555044640169324,-9.771244728050448,-0.08846600298089999
1743518885858910208,-0.00345554086379707,0.00349547900259495,-0.00173710158560425,0.057256180793047,-9.77138042449951,-0.0857647955417633
1743518885863899904,-0.00345554086379707,4.82044697491801e-06,-0.00173710158560425,0.057256180793047,-9.77138042449951,-0.0857647955417633
1743518885868880128,-0.00520086986944079,4.82044697491801e-06,8.22767106001265e-06,0.057256180793047,-9.77138042449951,-0.0857647955417633
1743518885873859840,-0.00345554086379707,4.82044697491801e-06,8.22767106001265e-06,0.057256180793047,-9.77138042449951,-0.0857647955417633
1743518885878850048,-0.00345554086379707,-0.00348583795130253,8.22767106001265e-06,0.057256180793047,-9.77138042449951,-0.0857647955417633
1743518885883830016,-0.00345554086379707,4.82044697491801e-06,-0.00173710158560425,0.057256180793047,-9.77138042449951,-0.0857647955417633
1743518885888809984,-0.0017102116253227,4.82044697491801e-06,-0.00173710158560425,0.0572468516538804,-9.7714092358375,-0.08416567600715018
1743518885893799936,-0.00345554086379707,0.00349547900259495,8.22767106001265e-06,0.057210190203869714,-9.771522458012516,-0.0778814905284696
1743518885898780160,3.51176349795423e-05,4.82044697491801e-06,8.22767106001265e-06,0.057173602321986136,-9.771635452985844,-0.07160991545543187
1743518885903759872,-0.00345554086379707,4.82044697491801e-06,8.22767106001265e-06,0.05777614864121974,-9.771745980067791,-0.06659856254404976
1743518885908740096,-0.00345554086379707,4.82044697491801e-06,8.22767106001265e-06,0.06410589295058736,-9.771834446514564,-0.0728769392772065
1743518885913729792,-0.00345554086379707,-0.00697649642825127,8.22767106001265e-06,0.07044806159529987,-9.771923086607657,-0.07916763951888772
1743518885918710016,-0.00345554086379707,4.82044697491801e-06,-0.00173710158560425,0.07677780590466748,-9.77201155305443,-0.08544601625204445
1743518885923689984,-0.00520086986944079,-0.00174050882924348,8.22767106001265e-06,0.07119039825226707,-9.771826336589383,-0.08578869562753996
1743518885928669952,-0.00520086986944079,-0.00348583795130253,0.00175355689134449,0.06489360674903846,-9.7716248315198,-0.08577789531833815
1743518885933659904,-0.0017102116253227,-0.00174050882924348,-0.0034824307076633,0.05858385206131045,-9.771422911612376,-0.08576707277457438
1743518885938640128,-0.0017102116253227,4.82044697491801e-06,8.22767106001265e-06,0.057256180793047,-9.77138042449951,-0.0857647955417633
1743518885943619840,-0.00345554086379707,0.00175014964770526,-0.0034824307076633,0.057256180793047,-9.77138042449951,-0.0857647955417633
1743518885948600064,-0.0017102116253227,4.82044697491801e-06,-0.00173710158560425,0.057256180793047,-9.77138042449951,-0.0857647955417633
1743518885953590016,-0.00345554086379707,4.82044697491801e-06,8.22767106001265e-06,0.057256180793047,-9.77138042449951,-0.0857647955417633
1743518885958569984,3.51176349795423e-05,4.82044697491801e-06,8.22767106001265e-06,0.057256180793047,-9.77138042449951,-0.0857647955417633
1743518885963550208,3.51176349795423e-05,0.00175014964770526,-0.00173710158560425,0.057256180793047,-9.77138042449951,-0.0857647955417633
1743518885968529920,-0.0017102116253227,4.82044697491801e-06,8.22767106001265e-06,0.060240444732549685,-9.768461106227385,-0.085642581058225
1743518885973510144,-0.0017102116253227,4.82044697491801e-06,8.22767106001265e-06,0.06651160219415252,-9.762326426140044,-0.08538575850971918
1743518885978490112,-0.00345554086379707,-0.00174050882924348,-0.00173710158560425,0.07278275965575534,-9.756191746052703,-0.08512893596121333
1743518885983480064,-0.0017102116253227,4.82044697491801e-06,8.22767106001265e-06,0.0770593623951549,-9.754063947189746,-0.08303678046290176
1743518885988460032,-0.00520086986944079,0.00175014964770526,-0.0034824307076633,0.07704481338002843,-9.760516949948181,-0.07703308358075467
1743518885993440000,-0.0017102116253227,4.82044697491801e-06,8.22767106001265e-06,0.077030265061427,-9.766969643773127,-0.07102967412185932
1743518885998419968,3.51176349795423e-05,4.82044697491801e-06,8.22767106001265e-06,0.07599397465049004,-9.77234042677638,-0.06600059746880514
1743518886003400192,-0.00520086986944079,4.82044697491801e-06,-0.00173710158560425,0.06969678381149262,-9.772138909003095,-0.06598979647870776
1743518886008379904,-0.00345554086379707,0.00175014964770526,8.22767106001265e-06,0.06339989444658745,-9.771937400877349,-0.06597899600570106
1743518886013360128,3.51176349795423e-05,4.82044697491801e-06,-0.00173710158560425,0.05714091004424803,-9.77173641709912,-0.06600609081219237
1743518886018349824,-0.0017102116253227,0.00349547900259495,8.22767106001265e-06,0.0571775691866391,-9.771623202050764,-0.07228988073887703
1743518886023330048,-0.0017102116253227,-0.00174050882924348,8.22767106001265e-06,0.05721415651361433,-9.77151020879117,-0.07856136069437365
1743518886028310016,-0.00520086986944079,4.82044697491801e-06,-0.00522775994613767,0.057250743840589556,-9.771397215531575,-0.08483284064987029
1743518886033289984,-0.00345554086379707,4.82044697491801e-06,8.22767106001265e-06,0.057237432142817915,-9.765986211302497,-0.08553696008056051
1743518886038269952,-0.00345554086379707,-0.00174050882924348,8.22767106001265e-06,0.05721540988526941,-9.759650141727105,-0.08526934341781497
1743518886043250176,-0.00520086986944079,4.82044697491801e-06,-0.00173710158560425,0.05719338762772091,-9.753314072151715,-0.08500172675506945
1743518886048229888,-0.00345554086379707,-0.00174050882924348,0.00175355689134449,0.05720188763863519,-9.755759627991115,-0.08510501973260236
1743518886053210112,-0.00345554086379707,4.82044697491801e-06,-0.0034824307076633,0.05722392392437579,-9.762099733646862,-0.08537280686733253
1743518886058190080,-0.0017102116253227,0.00175014964770526,-0.00173710158560425,0.057245960210116374,-9.768439839302609,-0.08564059400206271
1743518886063170048,-0.00520086986944079,4.82044697491801e-06,8.22767106001265e-06,0.057256180793047,-9.77138042449951,-0.0857647955417633
1743518886068160000,-0.00694619910791516,0.00175014964770526,-0.00173710158560425,0.057256180793047,-9.77138042449951,-0.0857647955417633
1743518886073159936,-0.0017102116253227,4.82044697491801e-06,0.00175355689134449,0.057256180793047,-9.77138042449951,-0.0857647955417633
1743518886078160128,-0.0017102116253227,0.00175014964770526,-0.0034824307076633,0.05968985495397196,-9.771458305064698,-0.0857689697999424
1743518886083090176,3.51176349795423e-05,-0.00174050882924348,8.22767106001265e-06,0.06597165676393404,-9.771659330445667,-0.08577974439869755
1743518886088030208,-0.00520086986944079,-0.00348583795130253,-0.00522775994613767,0.07226621781927858,-9.771860764138175,-0.08579054088221659
1743518886092960000,-0.00345554086379707,4.82044697491801e-06,-0.00173710158560425,0.07571172977065874,-9.770544648818491,-0.08573620659442872
1743518886097900032,-0.0017102116253227,4.82044697491801e-06,8.22767106001265e-06,0.06938295434721439,-9.763993138604702,-0.08545719742108682
1743518886102829824,-0.0017102116253227,4.82044697491801e-06,-0.00173710158560425,0.06306700752260136,-9.757454908479184,-0.08517875380688006
1743518886107759872,-0.0017102116253227,4.82044697491801e-06,8.22767106001265e-06,0.05718713790268432,-9.75224933792207,-0.08452414968013582
1743518886112699904,-0.0017102116253227,4.82044697491801e-06,-0.00173710158560425,0.05719463154046088,-9.765061576836839,-0.07877947022644544
1743518886117629952,3.51176349795423e-05,4.82044697491801e-06,-0.00173710158560425,0.05720210998843114,-9.777847844997053,-0.07304643539326929
1743518886122560000,-0.00520086986944079,-0.00174050882924348,8.22767106001265e-06,0.0572095884364014,-9.790634113157267,-0.06731340056009315
1743518886127490048,3.51176349795423e-05,4.82044697491801e-06,0.00175355689134449,0.057170034447910266,-9.780180885894515,-0.06632490798137795
1743518886132430080,-0.00520086986944079,4.82044697491801e-06,-0.0034824307076633,0.057125898306429605,-9.767482007184707,-0.06578854193231967
1743518886137360128,-0.00345554086379707,4.82044697491801e-06,8.22767106001265e-06,0.05708185163010059,-9.75480886944526,-0.06525326311173921
1743518886142290176,-0.0017102116253227,-0.00348583795130253,8.22767106001265e-06,0.052350435071816324,-9.756283781653886,-0.0700631020545426
1743518886147219968,-0.00345554086379707,-0.00174050882924348,8.22767106001265e-06,0.046111392312175085,-9.762309833258497,-0.0765921508137701
1743518886152150016,-0.00520086986944079,0.00175014964770526,-0.00173710158560425,0.0398720478142372,-9.76833617630053,-0.08312151533682986
1743518886157079808,3.51176349795423e-05,4.82044697491801e-06,8.22767106001265e-06,0.04116000941381242,-9.770865327515828,-0.0857371631370445
1743518886162009856,-0.00345554086379707,-0.0052311671897769,8.22767106001265e-06,0.0474578888775641,-9.771066867288171,-0.08574797474870745
1743518886166939904,-0.0017102116253227,4.82044697491801e-06,8.22767106001265e-06,0.053755768341315784,-9.771268407060514,-0.0857587863603704
1743518886171869952,-0.00520086986944079,-0.00174050882924348,-0.00871841888874769,0.05727244532389926,-9.77133019447429,-0.08855272142860546
1743518886176800000,3.51176349795423e-05,-0.00348583795130253,8.22767106001265e-06,0.057309061324875094,-9.771217112660297,-0.09482912115512936
1743518886181730048,-0.00345554086379707,4.82044697491801e-06,8.22767106001265e-06,0.05734567732585092,-9.771104030846304,-0.10110552088165325
1743518886186650112,-0.00345554086379707,4.82044697491801e-06,8.22767106001265e-06,0.059158285273463916,-9.769320499637082,-0.10187399061814163
1743518886191580160,-0.0017102116253227,-0.0052311671897769,8.22767106001265e-06,0.06536103615432629,-9.763407165635249,-0.0890722561026507
1743518886196509952,-0.00345554086379707,4.82044697491801e-06,-0.00173710158560425,0.07156378703518863,-9.757493831633417,-0.07627052158715977
1743518886201440000,-0.0017102116253227,0.00175014964770526,-0.0034824307076633,0.07611980361034663,-9.753171028349074,-0.06519100928816854
1743518886206360064,-0.0017102116253227,4.82044697491801e-06,-0.00173710158560425,0.0698486396627933,-9.759305712473692,-0.06544783200569115
1743518886211289856,-0.0017102116253227,4.82044697491801e-06,8.22767106001265e-06,0.0635650160466099,-9.765452585106216,-0.06570516498350737
1743518886216219904,-0.0017102116253227,4.82044697491801e-06,-0.0034824307076633,0.05728108853606967,-9.771599755019418,-0.0659625104066966
1743518886221139968,3.51176349795423e-05,-0.00174050882924348,8.22767106001265e-06,0.057140689343214,-9.77173709869385,-0.0659682601690292
1743518886226070016,-0.00345554086379707,4.82044697491801e-06,-0.00173710158560425,0.057140689343214,-9.77173709869385,-0.0659682601690292
1743518886230989824,-0.0017102116253227,4.82044697491801e-06,8.22767106001265e-06,0.057140689343214,-9.77173709869385,-0.0659682601690292
1743518886235919872,-0.0017102116253227,4.82044697491801e-06,8.22767106001265e-06,0.05717071393077798,-9.771644373253176,-0.0711148126681237
1743518886240839936,-0.0017102116253227,4.82044697491801e-06,8.22767106001265e-06,0.05720727854505772,-9.771531450137582,-0.07738239941178343
1743518886245769984,3.51176349795423e-05,4.82044697491801e-06,-0.00173710158560425,0.05724391757849815,-9.771418297192039,-0.0836627424378251
1743518886250690048,-0.00345554086379707,4.82044697491801e-06,-0.0034824307076633,0.05723187902047516,-9.771455476074026,-0.0815991979929048
1743518886255610112,-0.00520086986944079,-0.00348583795130253,8.22767106001265e-06,0.05719531384520777,-9.771568400922128,-0.07533151508964239
1743518886260539904,-0.0017102116253227,-0.00174050882924348,-0.0034824307076633,0.05715867424963792,-9.771681555603704,-0.06905107570828649
1743518886265459968,-0.00345554086379707,4.82044697491801e-06,8.22767106001265e-06,0.05715928130708991,-9.771679680817927,-0.06915513219332362
1743518886270380032,3.51176349795423e-05,0.00175014964770526,8.22767106001265e-06,0.057195869497681476,-9.771566684891212,-0.075426760182389
1743518886275300096,-0.00345554086379707,-0.00348583795130253,8.22767106001265e-06,0.05723245768827305,-9.771453688964495,-0.08169838817145439
1743518886280219904,-0.00520086986944079,-0.00174050882924348,8.22767106001265e-06,0.055041918711928754,-9.77130956543047,-0.08576099430328632
1743518886285139968,3.51176349795423e-05,4.82044697491801e-06,-0.00173710158560425,0.04874457688365475,-9.771108042863112,-0.08575018361458576
1743518886290070016,-0.00694619910791516,4.82044697491801e-06,8.22767106001265e-06,0.0424344182131251,-9.770906110141276,-0.08573935092312668
1743518886294990080,3.51176349795423e-05,-0.00174050882924348,0.00175355689134449,0.038620473090611326,-9.770784059276991,-0.08573280349810755
1743518886299910144,-0.0017102116253227,0.00524080824106932,-0.00173710158560425,0.04491771824195591,-9.770985578750569,-0.08574361402084216
1743518886304829952,-0.0017102116253227,0.00524080824106932,8.22767106001265e-06,0.0512149633933005,-9.771187098224146,-0.08575442454357678
1743518886309740032,-0.0017102116253227,0.00175014964770526,-0.00522775994613767,0.057256180793047,-9.77138042449951,-0.0857647955417633
1743518886314660096,-0.0017102116253227,4.82044697491801e-06,0.00175355689134449,0.057256180793047,-9.77138042449951,-0.0857647955417633
1743518886319580160,-0.00345554086379707,4.82044697491801e-06,8.22767106001265e-06,0.057256180793047,-9.77138042449951,-0.0857647955417633
1743518886324499968,-0.00520086986944079,-0.00174050882924348,-0.0034824307076633,0.057256180793047,-9.77138042449951,-0.0857647955417633
1743518886329420032,-0.0017102116253227,4.82044697491801e-06,8.22767106001265e-06,0.06277582079276978,-9.766049215362013,-0.07998857969990217
1743518886334340096,-0.00520086986944079,-0.00174050882924348,8.22767106001265e-06,0.06901846526466933,-9.760019683861334,-0.07345575112856344
1743518886339250176,-0.00345554086379707,0.00175014964770526,0.00175355689134449,0.07524840421864779,-9.7540024241344,-0.06693621868050423
1743518886344169984,-0.00345554086379707,4.82044697491801e-06,-0.00173710158560425,0.07240599835229926,-9.756747795232501,-0.0699107514027517
1743518886349090048,-0.00345554086379707,0.00175014964770526,-0.0034824307076633,0.0661633538803997,-9.762777326733179,-0.07644357997409043
1743518886354000128,-0.00520086986944079,-0.0052311671897769,-0.00173710158560425,0.05993341492642125,-9.768794586460112,-0.08296311242214963
1743518886358920192,-0.00345554086379707,4.82044697491801e-06,8.22767106001265e-06,0.057256180793047,-9.77138042449951,-0.0857647955417633
1743518886363840000,-0.00520086986944079,-0.00174050882924348,8.22767106001265e-06,0.057256180793047,-9.77138042449951,-0.0857647955417633
1743518886368750080,-0.0017102116253227,-0.00174050882924348,8.22767106001265e-06,0.057256180793047,-9.77138042449951,-0.0857647955417633
1743518886373670144,-0.0017102116253227,4.82044697491801e-06,0.00175355689134449,0.057256180793047,-9.77138042449951,-0.0857647955417633
1743518886378579968,-0.00520086986944079,-0.0052311671897769,0.00175355689134449,0.057256180793047,-9.77138042449951,-0.0857647955417633
1743518886383500032,-0.0017102116253227,4.82044697491801e-06,-0.00173710158560425,0.057256180793047,-9.77138042449951,-0.0857647955417633
1743518886388410112,-0.0017102116253227,4.82044697491801e-06,8.22767106001265e-06,0.05890952312585465,-9.771433333486833,-0.08576763136829521
1743518886393320192,-0.0017102116253227,4.82044697491801e-06,8.22767106001265e-06,0.06520206276766592,-9.771634702491623,-0.08577842438466894
1743518886398240000,-0.00345554086379707,4.82044697491801e-06,8.22767106001265e-06,0.07150743559705397,-9.771836482174193,-0.08578923941263282
1743518886403150080,-0.0017102116253227,4.82044697491801e-06,-0.00522775994613767,0.07579986600941377,-9.771973845236639,-0.08579660082583669
1743518886408060160,-0.00520086986944079,4.82044697491801e-06,8.22767106001265e-06,0.06320645908023766,-9.771570840845456,-0.08577499107481949
1743518886412969984,-0.00345554086379707,4.82044697491801e-06,-0.00173710158560425,0.05061305215106155,-9.771167836454273,-0.08575338132380228
1743518886417890048,3.51176349795423e-05,4.82044697491801e-06,-0.00173710158560425,0.037993961863090384,-9.770764010164264,-0.08573172750123303
1743518886422800128,-0.00345554086379707,0.00349547900259495,8.22767106001265e-06,0.0373787842690945,-9.77074432373047,-0.0857306718826294
1743518886427709952,-0.00345554086379707,-0.00174050882924348,-0.00173710158560425,0.0373787842690945,-9.77074432373047,-0.0857306718826294
1743518886432620032,-0.0017102116253227,-0.00174050882924348,8.22767106001265e-06,0.0373787842690945,-9.77074432373047,-0.0857306718826294
1743518886437530112,-0.00345554086379707,4.82044697491801e-06,8.22767106001265e-06,0.04238023711378187,-9.77090437628046,-0.08573925791007221
1743518886442439936,-0.00520086986944079,4.82044697491801e-06,-0.00173710158560425,0.04867684549399287,-9.771105875376591,-0.08575006733965758
1743518886447350016,-0.0017102116253227,4.82044697491801e-06,8.22767106001265e-06,0.054973453874203874,-9.77130737447272,-0.08576087676924295
1743518886452260096,-0.0017102116253227,4.82044697491801e-06,8.22767106001265e-06,0.057256180793047,-9.77138042449951,-0.0857647955417633
1743518886457169920,3.51176349795423e-05,0.00175014964770526,8.22767106001265e-06,0.057256180793047,-9.77138042449951,-0.0857647955417633
1743518886462080000,-0.00520086986944079,-0.00174050882924348,8.22767106001265e-06,0.057256180793047,-9.77138042449951,-0.0857647955417633
1743518886466980096,-0.00345554086379707,4.82044697491801e-06,8.22767106001265e-06,0.057256180793047,-9.77138042449951,-0.0857647955417633
1743518886471889920,-0.0017102116253227,4.82044697491801e-06,-0.00173710158560425,0.057256180793047,-9.77138042449951,-0.0857647955417633
1743518886476800000,-0.00345554086379707,4.82044697491801e-06,8.22767106001265e-06,0.057256180793047,-9.77138042449951,-0.0857647955417633
1743518886481710080,-0.0017102116253227,0.00175014964770526,8.22767106001265e-06,0.05724424352222656,-9.771417290574519,-0.08371861286423714
1743518886486609920,-0.0017102116253227,4.82044697491801e-06,8.22767106001265e-06,0.057207686408547294,-9.771530190525882,-0.07745231180798358
1743518886491520000,3.51176349795423e-05,4.82044697491801e-06,8.22767106001265e-06,0.05717105458687004,-9.771643321199216,-0.07117320495938072
1743518886496429824,-0.00345554086379707,4.82044697491801e-06,0.00175355689134449,0.05714695592123522,-9.771717745515149,-0.06704242222728052
1743518886501329920,3.51176349795423e-05,0.00175014964770526,-0.0034824307076633,0.05718351303491449,-9.771604845563786,-0.07330872328353409
1743518886506240000,-0.00345554086379707,0.00698613747954369,-0.0034824307076633,0.05722014485659174,-9.771491714890452,-0.07958783013213694
1743518886511149824,-0.0017102116253227,4.82044697491801e-06,-0.00173710158560425,0.057256180793047,-9.77138042449951,-0.0857647955417633
1743518886516050176,3.51176349795423e-05,4.82044697491801e-06,8.22767106001265e-06,0.057256180793047,-9.77138042449951,-0.0857647955417633
1743518886520950016,-0.0017102116253227,4.82044697491801e-06,8.22767106001265e-06,0.057256180793047,-9.77138042449951,-0.0857647955417633
1743518886525860096,-0.00520086986944079,4.82044697491801e-06,8.22767106001265e-06,0.057256180793047,-9.77138042449951,-0.0857647955417633
1743518886530759936,-0.0017102116253227,-0.00174050882924348,0.00175355689134449,0.051846769397369145,-9.771207316781672,-0.08575550916915617
1743518886535670016,-0.00694619910791516,-0.00348583795130253,0.00175355689134449,0.04553793383940167,-9.77100542640104,-0.08574467874909324
1743518886540570112,-0.00520086986944079,0.00175014964770526,8.22767106001265e-06,0.0392419647033743,-9.770803947761499,-0.08573387041690261
1743518886545469952,-0.00345554086379707,0.00175014964770526,-0.00173710158560425,0.041783034679902166,-9.77096557919769,-0.0813263085592694
1743518886550370048,3.51176349795423e-05,0.00175014964770526,8.22767106001265e-06,0.04803847037049782,-9.771279832298054,-0.07507071249695461
1743518886555279872,3.51176349795423e-05,4.82044697491801e-06,8.22767106001265e-06,0.054306689649017026,-9.771594727605025,-0.06880233251898116
1743518886560179968,-0.0017102116253227,4.82044697491801e-06,-0.00173710158560425,0.057128638847690934,-9.76827002553461,-0.06582182134961136
1743518886565079808,-0.0017102116253227,4.82044697491801e-06,8.22767106001265e-06,0.05710660684128668,-9.761931151095622,-0.06555408621780144
1743518886569979904,-0.00520086986944079,-0.00348583795130253,8.22767106001265e-06,0.05708457483488244,-9.755592276656634,-0.06528635108599151
1743518886574880000,-0.00520086986944079,0.00175014964770526,-0.0034824307076633,0.05462401781416618,-9.754118098916146,-0.0652231897120781
1743518886579780096,-0.00345554086379707,-0.00174050882924348,8.22767106001265e-06,0.04834571153400723,-9.760259768779164,-0.06548029543473109
1743518886584680192,-0.00345554086379707,4.82044697491801e-06,8.22767106001265e-06,0.04206771072294184,-9.76640113982109,-0.06573738864798287
1743518886589580032,-0.00345554086379707,4.82044697491801e-06,0.00175355689134449,0.03875064232863087,-9.771121785565851,-0.06740941717070788
1743518886594480128,-0.00520086986944079,4.82044697491801e-06,8.22767106001265e-06,0.04508729388678949,-9.771210348500949,-0.0736946510307867
1743518886599379968,-0.0017102116253227,4.82044697491801e-06,-0.00173710158560425,0.051423945444948105,-9.771298911436046,-0.07997988489086554
1743518886604280064,-0.0017102116253227,4.82044697491801e-06,8.22767106001265e-06,0.057256180793047,-9.77138042449951,-0.0857647955417633
1743518886609179904,-0.00520086986944079,4.82044697491801e-06,-0.0034824307076633,0.057256180793047,-9.77138042449951,-0.0857647955417633
1743518886614070016,-0.0017102116253227,4.82044697491801e-06,-0.00173710158560425,0.057256180793047,-9.77138042449951,-0.0857647955417633
1743518886618969856,-0.00520086986944079,4.82044697491801e-06,8.22767106001265e-06,0.057256180793047,-9.77138042449951,-0.0857647955417633
1743518886623869952,3.51176349795423e-05,4.82044697491801e-06,8.22767106001265e-06,0.057256180793047,-9.77138042449951,-0.0857647955417633
1743518886628770048,-0.0017102116253227,4.82044697491801e-06,-0.00173710158560425,0.057256180793047,-9.77138042449951,-0.0857647955417633
1743518886633660160,-0.00345554086379707,4.82044697491801e-06,8.22767106001265e-06,0.057256180793047,-9.77138042449951,-0.0857647955417633
1743518886638560000,-0.00345554086379707,4.82044697491801e-06,-0.00173710158560425,0.057256180793047,-9.77138042449951,-0.0857647955417633
1743518886643460096,-0.00520086986944079,4.82044697491801e-06,8.22767106001265e-06,0.057256180793047,-9.77138042449951,-0.0857647955417633
1743518886648349952,-0.00520086986944079,-0.00174050882924348,8.22767106001265e-06,0.057256180793047,-9.77138042449951,-0.0857647955417633
1743518886653250048,3.51176349795423e-05,4.82044697491801e-06,-0.00173710158560425,0.057256180793047,-9.77138042449951,-0.0857647955417633
1743518886658139904,-0.00520086986944079,0.00175014964770526,8.22767106001265e-06,0.057256180793047,-9.77138042449951,-0.0857647955417633
1743518886663040000,-0.0017102116253227,4.82044697491801e-06,8.22767106001265e-06,0.057256180793047,-9.77138042449951,-0.0857647955417633
1743518886667929856,-0.0017102116253227,0.00175014964770526,8.22767106001265e-06,0.05724954584186614,-9.774322167732892,-0.0830277458249768
1743518886672819968,-0.0017102116253227,0.00175014964770526,8.22767106001265e-06,0.05723499548543819,-9.780773370070103,-0.07702543354645568
1743518886677720064,-0.00345554086379707,-0.00348583795130253,8.22767106001265e-06,0.05722041604390403,-9.787237467892457,-0.0710111230814288
1743518886682609920,-0.00694619910791516,-0.0052311671897769,0.00175355689134449,0.05719699543947381,-9.787938119541947,-0.06665255240244661
1743518886687500032,-0.0017102116253227,4.82044697491801e-06,-0.0034824307076633,0.0571529382776522,-9.775261964909895,-0.0661171461565396
1743518886692389888,-0.00345554086379707,-0.00174050882924348,-0.00173710158560425,0.05710888111583059,-9.762585810277843,-0.06558173991063261
1743518886697289984,-0.0017102116253227,4.82044697491801e-06,8.22767106001265e-06,0.057079640282818506,-9.752628136122938,-0.06607219456310179
1743518886702179840,-0.00345554086379707,4.82044697491801e-06,8.22767106001265e-06,0.05713824709167523,-9.75885340294181,-0.07260962044883465
1743518886707070208,-0.00345554086379707,4.82044697491801e-06,-0.00173710158560425,0.0571968567580068,-9.765078973284172,-0.07914736507790665
1743518886711960064,-0.00520086986944079,0.00175014964770526,8.22767106001265e-06,0.05725546356686353,-9.771304240103044,-0.08568479096363951
1743518886716849920,-0.00520086986944079,0.00175014964770526,-0.00522775994613767,0.057256180793047,-9.77138042449951,-0.0857647955417633
1743518886721740032,-0.0017102116253227,4.82044697491801e-06,8.22767106001265e-06,0.057256180793047,-9.77138042449951,-0.0857647955417633
1743518886726629888,-0.0017102116253227,4.82044697491801e-06,-0.00173710158560425,0.057256180793047,-9.77138042449951,-0.0857647955417633
1743518886731520000,-0.00694619910791516,4.82044697491801e-06,8.22767106001265e-06,0.057274526379673625,-9.776658985301975,-0.08598774895489876
1743518886736409856,-0.00345554086379707,-0.00174050882924348,-0.0034824307076633,0.057296567735289114,-9.78300092672653,-0.08625561694760031
1743518886741300224,-0.00345554086379707,4.82044697491801e-06,8.22767106001265e-06,0.057318610165568454,-9.789343177363245,-0.0865234980006623
1743518886746190080,-0.00520086986944079,4.82044697491801e-06,8.22767106001265e-06,0.05731081217412264,-9.78709946759143,-0.08642872922363547
1743518886751079936,-0.00345554086379707,4.82044697491801e-06,8.22767106001265e-06,0.0572887704779318,-9.780757428173406,-0.08616085709193097
1743518886755970048,3.51176349795423e-05,0.00349547900259495,8.22767106001265e-06,0.05726672878174096,-9.774415388755381,-0.08589298496022647
1743518886760849920,-0.00345554086379707,4.82044697491801e-06,8.22767106001265e-06,0.053982108414271784,-9.771275650217047,-0.08575917491988265
1743518886765740032,-0.0017102116253227,4.82044697491801e-06,8.22767106001265e-06,0.04767860475439384,-9.771073930463615,-0.0857483536531247
1743518886770629888,-0.00345554086379707,4.82044697491801e-06,8.22767106001265e-06,0.0413751010945159,-9.770872210710182,-0.08573753238636676
1743518886775510016,-0.00345554086379707,-0.00174050882924348,8.22767106001265e-06,0.0396653406081929,-9.76850753031338,-0.08563703409343638
1743518886780400128,-0.00345554086379707,-0.00174050882924348,0.00349888624623418,0.04594678589548303,-9.762362789758264,-0.08537979982390136
1743518886785289984,-0.00694619910791516,4.82044697491801e-06,-0.00522775994613767,0.05222823118277317,-9.756218049203145,-0.08512256555436634
1743518886790169856,-0.0017102116253227,4.82044697491801e-06,8.22767106001265e-06,0.05849922832026543,-9.75275789120338,-0.08366742199468086
1743518886795059968,3.51176349795423e-05,4.82044697491801e-06,8.22767106001265e-06,0.06479225124890943,-9.75942350808327,-0.0776645300859906
1743518886799940096,-0.00345554086379707,4.82044697491801e-06,8.22767106001265e-06,0.07107269426823726,-9.766075800229268,-0.07167363810749322
1743518886804829952,3.51176349795423e-05,0.00175014964770526,8.22767106001265e-06,0.07667189137206633,-9.772355807941562,-0.06634855425834653
1743518886809710080,-0.0017102116253227,0.00175014964770526,8.22767106001265e-06,0.07041784664438008,-9.7720416246595,-0.0726027699325982
1743518886814589952,-0.00520086986944079,4.82044697491801e-06,-0.00173710158560425,0.06416380191669382,-9.771727441377442,-0.0788569856068499
1743518886819480064,-0.0017102116253227,4.82044697491801e-06,8.22767106001265e-06,0.05789692399189193,-9.771412613396446,-0.08512403482899675
1743518886824359936,-0.00345554086379707,-0.00348583795130253,8.22767106001265e-06,0.057256180793047,-9.77138042449951,-0.0857647955417633
