#timestamp [ns],w_RS_S_x [rad s^-1],w_RS_S_y [rad s^-1],w_RS_S_z [rad s^-1],a_RS_S_x [m s^-2],a_RS_S_y [m s^-2],a_RS_S_z [m s^-2]
1743278389987620096,0.00213059387169778,-0.00639178184792399,-0.003195890923962,0.152983739972115,9.799523471256373,-0.420705288648605
1743278389992620032,-0.00213059387169778,-0.0170447509735823,-0.00213059387169778,0.152983739972115,9.81168806178629,-0.420705288648605
1743278389997620224,-0.00213059387169778,-0.0106529695913196,-0.00106529693584889,0.152983739972115,9.823853232383469,-0.420705288648605
1743278390002629888,0.0,-0.00426118774339557,-0.00745707890018821,0.152983739972115,9.82920551300049,-0.4275375666026561
1743278390007630080,0.00426118774339557,-0.00532648479565978,-0.00745707890018821,0.152983739972115,9.82920551300049,-0.4396949171246619
1743278390012630016,0.00532648479565978,-0.00745707890018821,-0.00213059387169778,0.152983739972115,9.82920551300049,-0.4518516879522884
1743278390017630208,-0.003195890923962,-0.00426118774339557,-0.003195890923962,0.152983739972115,9.82920551300049,-0.4538902264711859
1743278390022629888,-0.00106529693584889,-0.00106529693584889,-0.003195890923962,0.152983739972115,9.82920551300049,-0.44172589626532427
1743278390027640064,0.0,-0.00532648479565978,-0.00639178184792399,0.152983739972115,9.82920551300049,-0.4295366237010223
1743278390032640000,0.0,-0.003195890923962,-0.00213059387169778,0.152983739972115,9.82920551300049,-0.420705288648605
1743278390037640192,0.0,-0.00106529693584889,-0.00426118774339557,0.152983739972115,9.82920551300049,-0.420705288648605
1743278390042639872,0.003195890923962,0.0,-0.00639178184792399,0.152983739972115,9.82920551300049,-0.420705288648605
1743278390047640064,0.00213059387169778,-0.00426118774339557,-0.00745707890018821,0.152983739972115,9.82920551300049,-0.421495689954603
1743278390052649984,-0.00106529693584889,-0.00639178184792399,-0.00532648479565978,0.152983739972115,9.82920551300049,-0.4275861566370143
1743278390057650176,0.003195890923962,-0.00106529693584889,-0.00213059387169778,0.152983739972115,9.82920551300049,-0.43366473976477
1743278390062649856,0.0,-0.00426118774339557,-0.003195890923962,0.152983739972115,9.82920551300049,-0.43974303304972917
1743278390067650048,-0.00106529693584889,-0.003195890923962,-0.00532648479565978,0.152983739972115,9.82920551300049,-0.4338347866446433
1743278390072649984,0.003195890923962,-0.00532648479565978,0.0,0.152983739972115,9.82920551300049,-0.4277564012308299
1743278390077660160,0.00106529693584889,-0.00639178184792399,-0.00106529693584889,0.152983739972115,9.82920551300049,-0.42166555238786224
1743278390082659840,0.00106529693584889,-0.003195890923962,-0.00426118774339557,0.152983739972115,9.82920551300049,-0.43094789714486675
1743278390087660032,0.00213059387169778,-0.003195890923962,-0.00213059387169778,0.152983739972115,9.82920551300049,-0.4431128074055758
1743278390092659968,0.00426118774339557,-0.00532648479565978,-0.00213059387169778,0.152983739972115,9.82920551300049,-0.4552771376114374
1743278390097660160,0.0,-0.003195890923962,-0.00532648479565978,0.152983739972115,9.82920551300049,-0.4504602333803054
1743278390102670080,-0.00426118774339557,-0.00106529693584889,-0.00745707890018821,0.152983739972115,9.82920551300049,-0.43827135600882966
1743278390107670016,-0.00106529693584889,-0.00852237548679113,0.0,0.152983739972115,9.82920551300049,-0.4261062612467971
1743278390112669952,0.00426118774339557,-0.00852237548679113,-0.00106529693584889,0.14960202021148483,9.82920551300049,-0.420705288648605
1743278390117670144,0.003195890923962,-0.00426118774339557,-0.00426118774339557,0.14351956508113015,9.82920551300049,-0.420705288648605
1743278390122669824,-0.00106529693584889,-0.00426118774339557,-0.00213059387169778,0.13743739997819915,9.82920551300049,-0.420705288648605
1743278390127670016,-0.003195890923962,-0.00426118774339557,-0.003195890923962,0.133860781788826,9.82920551300049,-0.420705288648605
1743278390132679936,0.00426118774339557,-0.003195890923962,-0.00532648479565978,0.133860781788826,9.82920551300049,-0.420705288648605
1743278390137680128,0.00106529693584889,-0.00745707890018821,-0.00532648479565978,0.133860781788826,9.82920551300049,-0.420705288648605
1743278390142679808,0.00213059387169778,-0.003195890923962,0.00213059387169778,0.133860781788826,9.82920551300049,-0.4239875182240197
1743278390147680000,-0.00532648479565978,0.0,-0.00213059387169778,0.133860781788826,9.82920551300049,-0.4361448687460255
1743278390152679936,0.00213059387169778,-0.00639178184792399,0.0,0.133860781788826,9.82920551300049,-0.44830163957365193
1743278390157690112,0.0,-0.00532648479565978,-0.003195890923962,0.1346273242697304,9.82997202203192,-0.45818466253427764
1743278390162690048,0.00106529693584889,-0.00745707890018821,-0.00213059387169778,0.1407094893726614,9.836053921728524,-0.45210249743134695
1743278390167689984,-0.00106529693584889,-0.00426118774339557,-0.00532648479565978,0.14679194450301608,9.842136111439897,-0.44602004230099257
1743278390172689920,0.00426118774339557,-0.00745707890018821,-0.00639178184792399,0.15287410960594705,9.848218011136503,-0.43993787719806193
1743278390177690112,0.00106529693584889,-0.003195890923962,-0.003195890923962,0.1470108246199954,9.842354982005645,-0.4458011621840133
1743278390182700032,0.00426118774339557,-0.00852237548679113,-0.00532648479565978,0.14091638593425737,9.836260809261814,-0.451895600869751
1743278390187699968,0.00213059387169778,-0.003195890923962,-0.00213059387169778,0.13483383855324094,9.830178527303804,-0.4579781482507671
1743278390192699904,0.00213059387169778,-0.00639178184792399,0.00106529693584889,0.13896990488516056,9.82920551300049,-0.44873295882251313
1743278390197700096,-0.00106529693584889,-0.00639178184792399,-0.00532648479565978,0.14505236001551525,9.82920551300049,-0.4365680485618041
1743278390202699776,-0.00213059387169778,-0.00532648479565978,-0.003195890923962,0.15113452511844622,9.82920551300049,-0.4244037183559425
1743278390207709952,0.00213059387169778,-0.00532648479565978,-0.00639178184792399,0.152983739972115,9.82920551300049,-0.4249507744660434
1743278390212709888,0.003195890923962,-0.00745707890018821,-0.00213059387169778,0.152983739972115,9.82920551300049,-0.43103303181523733
1743278390217710080,-0.00106529693584889,-0.00426118774339557,-0.003195890923962,0.152983739972115,9.82920551300049,-0.43711557919625377
1743278390222710016,0.003195890923962,-0.00532648479565978,-0.00426118774339557,0.152983739972115,9.82920551300049,-0.439828246831894
1743278390227709952,-0.00106529693584889,-0.00532648479565978,-0.003195890923962,0.152983739972115,9.82920551300049,-0.439828246831894
1743278390232719872,0.00106529693584889,0.00106529693584889,-0.00958767253905535,0.152983739972115,9.82920551300049,-0.439828246831894
1743278390237720064,0.003195890923962,-0.00639178184792399,-0.00106529693584889,0.152983739972115,9.82920551300049,-0.439828246831894
1743278390242720000,-0.00213059387169778,-0.00106529693584889,-0.00532648479565978,0.152983739972115,9.82920551300049,-0.439828246831894
1743278390247719936,0.00106529693584889,-0.00745707890018821,-0.00213059387169778,0.152983739972115,9.82920551300049,-0.439828246831894
1743278390252720128,-0.00106529693584889,-0.00532648479565978,-0.003195890923962,0.15136567697515482,9.82920551300049,-0.4382101838349338
1743278390257730048,-0.00106529693584889,-0.00426118774339557,-0.00745707890018821,0.14527133072042742,9.82920551300049,-0.4321158375802064
1743278390262729984,-0.00106529693584889,-0.00426118774339557,-0.00426118774339557,0.13918916561749645,9.82920551300049,-0.4260336724772754
1743278390267729920,0.003195890923962,-0.00639178184792399,-0.00106529693584889,0.133860781788826,9.82920551300049,-0.42145937138704875
1743278390272730112,0.0,-0.00745707890018821,0.0,0.133860781788826,9.82920551300049,-0.4275419187680652
1743278390277730048,0.00106529693584889,-0.00639178184792399,-0.00213059387169778,0.133860781788826,9.82920551300049,-0.4336241761172591
1743278390282740224,0.00213059387169778,-0.00745707890018821,-0.00745707890018821,0.133860781788826,9.82920551300049,-0.4397189048348196
1743278390287739904,0.0,-0.00745707890018821,-0.003195890923962,0.133860781788826,9.82920551300049,-0.439828246831894
1743278390292740096,0.00532648479565978,-0.00532648479565978,-0.00426118774339557,0.133860781788826,9.82920551300049,-0.439828246831894
1743278390297740032,-0.00106529693584889,-0.00532648479565978,-0.00639178184792399,0.133860781788826,9.82920551300049,-0.439828246831894
1743278390302740224,-0.00213059387169778,-0.00426118774339557,-0.00639178184792399,0.133860781788826,9.82920551300049,-0.43473101485993215
1743278390307749888,0.0,-0.00852237548679113,0.0,0.133860781788826,9.82920551300049,-0.4286366686052047
1743278390312750080,0.00106529693584889,-0.003195890923962,-0.00852237548679113,0.133860781788826,9.82920551300049,-0.42255421347485006
1743278390317750016,0.0,-0.00213059387169778,-0.00532648479565978,0.1380940862697203,9.82920551300049,-0.42493859312949933
1743278390322750208,-0.00426118774339557,-0.003195890923962,0.00213059387169778,0.14417663365073674,9.82920551300049,-0.43102114051051577
1743278390327749888,0.0,-0.00958767253905535,-0.00106529693584889,0.1502588909999307,9.82920551300049,-0.4371033978597097
1743278390332760064,0.0,-0.003195890923962,-0.00426118774339557,0.152983739972115,9.832575194588152,-0.439828246831894
1743278390337760000,0.00106529693584889,-0.00532648479565978,0.0,0.152983739972115,9.838657094284756,-0.439828246831894
1743278390342760192,0.003195890923962,-0.0106529695913196,-0.00213059387169778,0.152983739972115,9.844739283996129,-0.439828246831894
1743278390347759872,0.003195890923962,-0.00745707890018821,-0.00532648479565978,0.152983739972115,9.843340342770999,-0.439828246831894
1743278390352760064,0.00213059387169778,-0.00532648479565978,-0.00426118774339557,0.152983739972115,9.831175475514401,-0.439828246831894
1743278390357760000,0.00426118774339557,-0.00426118774339557,0.0,0.152983739972115,9.8190111883106,-0.439828246831894
1743278390362770176,-0.00426118774339557,-0.00426118774339557,-0.003195890923962,0.15135349582335839,9.811712689919334,-0.439828246831894
1743278390367769856,0.0,0.0,-0.00213059387169778,0.14527133072042742,9.817794892937455,-0.439828246831894
1743278390372770048,-0.003195890923962,0.0,-0.00106529693584889,0.1391888755900727,9.823877385984806,-0.439828246831894
1743278390377769984,0.003195890923962,-0.00639178184792399,-0.00532648479565978,0.13461486452726976,9.829959562833164,-0.43907416409345024
1743278390382770176,0.00213059387169778,-0.00532648479565978,-0.003195890923962,0.1406974119082862,9.836041844791172,-0.4329916167124338
1743278390387779840,0.00532648479565978,-0.012783563695848,0.0,0.14679185059402422,9.842136017535003,-0.4268971780266958
1743278390392780032,0.00213059387169778,0.0,-0.003195890923962,0.15287439797504065,9.848218299493013,-0.42081463064567937
1743278390397779968,-0.00106529693584889,-0.00532648479565978,-0.00426118774339557,0.152983739972115,9.84832763671875,-0.42667811341279177
1743278390402780160,0.00213059387169778,-0.00532648479565978,0.00106529693584889,0.152983739972115,9.84832763671875,-0.43276056854314643
1743278390407779840,-0.00213059387169778,-0.003195890923962,-0.00532648479565978,0.152983739972115,9.84832763671875,-0.4388427336460774
1743278390412790016,-0.00106529693584889,-0.003195890923962,-0.00426118774339557,0.152983739972115,9.84832763671875,-0.439828246831894
1743278390417789952,0.0,-0.00639178184792399,0.0,0.152983739972115,9.84832763671875,-0.439828246831894
1743278390422790144,0.00213059387169778,-0.00639178184792399,-0.00639178184792399,0.152983739972115,9.84832763671875,-0.439828246831894
1743278390427789824,-0.00106529693584889,-0.00213059387169778,-0.00639178184792399,0.152983739972115,9.844107956660215,-0.44404811103187086
1743278390432790016,-0.00106529693584889,-0.00532648479565978,-0.00213059387169778,0.152983739972115,9.838044985285347,-0.4501113469870583
1743278390437799936,-0.00106529693584889,-0.00426118774339557,-0.00106529693584889,0.152983739972115,9.831970160876605,-0.4561864364933692
1743278390442800128,0.00106529693584889,-0.00639178184792399,-0.00532648479565978,0.152983739972115,9.82920551300049,-0.4556422821379069
1743278390447799808,0.00106529693584889,-0.00639178184792399,-0.003195890923962,0.152983739972115,9.82920551300049,-0.4495601170349762
1743278390452850176,0.00106529693584889,-0.00745707890018821,-0.00532648479565978,0.152983739972115,9.82920551300049,-0.4434167561456397
1743278390457849856,-0.00106529693584889,-0.003195890923962,-0.00532648479565978,0.152983739972115,9.82920551300049,-0.44232035296836647
1743278390462860032,0.00213059387169778,-0.00532648479565978,-0.00745707890018821,0.152983739972115,9.82920551300049,-0.44841120181133387
1743278390467859968,0.00106529693584889,-0.00639178184792399,-0.00213059387169778,0.152983739972115,9.82920551300049,-0.45448958722514693
1743278390472860160,0.00213059387169778,-0.00213059387169778,-0.00532648479565978,0.152983739972115,9.82920551300049,-0.4573331420182219
1743278390477860096,0.0,-0.00852237548679113,-0.00213059387169778,0.152983739972115,9.82920551300049,-0.45125097691529126
1743278390482860032,-0.00106529693584889,-0.00532648479565978,0.0,0.152983739972115,9.82920551300049,-0.4451685217849369
1743278390487869952,-0.00106529693584889,0.00532648479565978,-0.00532648479565978,0.15222917657630744,9.82920551300049,-0.439828246831894
1743278390492870144,0.00213059387169778,0.0,-0.00106529693584889,0.14614275213904743,9.82920551300049,-0.439828246831894
1743278390497870080,0.00639178184792399,-0.00532648479565978,-0.003195890923962,0.1400566179184781,9.82920551300049,-0.439828246831894
1743278390502870016,0.003195890923962,-0.003195890923962,-0.00426118774339557,0.13397019348121808,9.82920551300049,-0.439828246831894
1743278390507869952,0.00213059387169778,-0.00852237548679113,-0.00213059387169778,0.133860781788826,9.82920551300049,-0.4338554220677072
1743278390512880128,0.00106529693584889,-0.00745707890018821,-0.00106529693584889,0.133860781788826,9.82920551300049,-0.4277607857855561
1743278390517880064,-0.00106529693584889,-0.003195890923962,-0.00532648479565978,0.133860781788826,9.82920551300049,-0.4216786206826251
1743278390522880000,-0.00106529693584889,-0.00532648479565978,-0.00106529693584889,0.138969982373605,9.834314490636018,-0.425814489233384
1743278390527879936,0.00426118774339557,-0.003195890923962,-0.003195890923962,0.14505223972279896,9.84039648257486,-0.43189674658257793
1743278390532880128,0.00106529693584889,-0.00532648479565978,-0.00532648479565978,0.1511347871038154,9.846478764532868,-0.43797929396359436
1743278390537880064,0.00106529693584889,-0.00213059387169778,-0.00106529693584889,0.152983739972115,9.84409721174919,-0.439828246831894
1743278390542889984,-0.00106529693584889,-0.00639178184792399,-0.00532648479565978,0.152983739972115,9.83800662869148,-0.439828246831894
1743278390547889920,0.00213059387169778,-0.00852237548679113,-0.00426118774339557,0.152983739972115,9.831928508519058,-0.439828246831894
1743278390552890112,0.003195890923962,-0.00639178184792399,-0.00532648479565978,0.152983739972115,9.832563013967901,-0.4431858943163548
1743278390557890048,-0.003195890923962,-0.00213059387169778,-0.00532648479565978,0.152983739972115,9.838644913664506,-0.4492680594192855
1743278390562889984,0.00213059387169778,-0.00639178184792399,-0.00426118774339557,0.152983739972115,9.84472710337588,-0.4553505145496399
1743278390567899904,0.0,-0.00426118774339557,-0.00532648479565978,0.152983739972115,9.845834051925934,-0.4564575114055131
1743278390572900096,0.00426118774339557,-0.00639178184792399,-0.00532648479565978,0.152983739972115,9.839751769967924,-0.45037496402449695
1743278390577900032,0.00426118774339557,-0.0117182666435838,0.00106529693584889,0.152983739972115,9.833669778029082,-0.44429270667530335
1743278390582899968,-0.00106529693584889,0.0,-0.00958767253905535,0.152983739972115,9.830823505390331,-0.439828246831894
1743278390587899904,0.00532648479565978,-0.00958767253905535,-0.00532648479565978,0.152983739972115,9.836905405086936,-0.439828246831894
1743278390592910080,0.00106529693584889,-0.003195890923962,0.0,0.152983739972115,9.842999775418559,-0.439828246831894
1743278390597910016,0.003195890923962,-0.00532648479565978,-0.00426118774339557,0.152983739972115,9.847573586886076,-0.43907416409345024
1743278390602909952,0.0,-0.00426118774339557,-0.00639178184792399,0.152983739972115,9.841491304928068,-0.4329916167124338
1743278390607909888,0.0,-0.00958767253905535,-0.00852237548679113,0.152983739972115,9.835409312989226,-0.42690935936323987
1743278390612910080,-0.00106529693584889,-0.00639178184792399,-0.00426118774339557,0.152983739972115,9.829327031031218,-0.42082681198222344
1743278390617920000,0.0,-0.00852237548679113,-0.003195890923962,0.152983739972115,9.835178077129616,-0.420705288648605
1743278390622919936,0.00213059387169778,0.00106529693584889,-0.00426118774339557,0.152983739972115,9.841260266840987,-0.420705288648605
1743278390627919872,0.00106529693584889,-0.0117182666435838,-0.003195890923962,0.152983739972115,9.847342166537592,-0.420705288648605
1743278390632920064,0.00213059387169778,-0.00213059387169778,-0.00852237548679113,0.152983739972115,9.838140278219873,-0.43089283766985853
1743278390637920000,0.00213059387169778,-0.00426118774339557,-0.00745707890018821,0.152983739972115,9.825983734742012,-0.44304960849748504
1743278390642929920,0.003195890923962,-0.003195890923962,-0.003195890923962,0.152983739972115,9.81380226487201,-0.45523130618342006
1743278390647929856,0.0,-0.00213059387169778,-0.00426118774339557,0.152983739972115,9.814303521046169,-0.4547301458902927
1743278390652930048,0.003195890923962,-0.00106529693584889,-0.003195890923962,0.152983739972115,9.820386014093522,-0.4486476907599383
1743278390657929984,0.00745707890018821,-0.00745707890018821,-0.00106529693584889,0.152983739972115,9.826468217111643,-0.4425655256570077
1743278390662929920,0.00106529693584889,-0.003195890923962,0.0,0.14963851293164945,9.82920551300049,-0.43648301979142845
1743278390667939840,0.00106529693584889,-0.00213059387169778,-0.00426118774339557,0.14354407424591142,9.82920551300049,-0.4303885811056904
1743278390672940032,-0.00106529693584889,-0.003195890923962,-0.003195890923962,0.137461526864895,9.82920551300049,-0.424306033724674
1743278390677939968,0.0,-0.003195890923962,-0.00106529693584889,0.13634225642621464,9.82920551300049,-0.4256682379233822
1743278390682939904,-0.00106529693584889,-0.00745707890018821,-0.003195890923962,0.14242471155656936,9.82920551300049,-0.43783314818409125
1743278390687939840,0.00106529693584889,-0.00639178184792399,-0.003195890923962,0.14850687665950033,9.82920551300049,-0.44999747838995285
1743278390692950016,-0.00213059387169778,-0.00106529693584889,-0.00852237548679113,0.15136697234833688,9.830822210073675,-0.45571766976762584
1743278390697949952,-0.00106529693584889,0.0,0.0,0.14528858693452346,9.836900330246095,-0.44356089893999934
1743278390702949888,0.0,-0.003195890923962,-0.003195890923962,0.1392099116735204,9.842978740253058,-0.43140354841799355
1743278390707950080,0.003195890923962,-0.00213059387169778,-0.00532648479565978,0.133860781788826,9.84759765847689,-0.4221653088429611
1743278390712950016,-0.00106529693584889,-0.00745707890018821,-0.00532648479565978,0.133860781788826,9.841515666538047,-0.4343298235413487
1743278390717959936,0.00213059387169778,-0.00639178184792399,-0.00532648479565978,0.133860781788826,9.835421493794215,-0.4465187009128244
1743278390722959872,0.00426118774339557,-0.00745707890018821,-0.00745707890018821,0.133860781788826,9.829339211836206,-0.45868379567485695
1743278390727960064,0.0,0.0,-0.003195890923962,0.133860781788826,9.82920551300049,-0.44705370003914713
1743278390732960000,0.00106529693584889,-0.00532648479565978,-0.00532648479565978,0.133860781788826,9.82920551300049,-0.43488936983328547
1743278390737960192,0.00426118774339557,-0.00426118774339557,0.0,0.133860781788826,9.82920551300049,-0.4227244595725764
1743278390742970112,0.00213059387169778,-0.00426118774339557,-0.00639178184792399,0.13894238271748827,9.82920551300049,-0.4308684905059293
1743278390747970048,0.0,-0.003195890923962,-0.00532648479565978,0.14502105797849132,9.82920551300049,-0.4430258410279351
1743278390752969984,0.00213059387169778,-0.00532648479565978,-0.003195890923962,0.15109944339230474,9.82920551300049,-0.4551826118555616
1743278390757970176,0.00106529693584889,-0.0106529695913196,-0.00213059387169778,0.152983739972115,9.82920551300049,-0.4547542181664619
1743278390762969856,-0.00213059387169778,-0.00213059387169778,-0.00532648479565978,0.152983739972115,9.82920551300049,-0.4486720530635312
1743278390767980032,0.00106529693584889,-0.00532648479565978,0.0,0.152983739972115,9.82920551300049,-0.4425774167813804
1743278390772979968,-0.00213059387169778,0.0,-0.00106529693584889,0.14965069426819355,9.82920551300049,-0.439828246831894
1743278390777980160,-0.00106529693584889,-0.00532648479565978,-0.00532648479565978,0.14356814688717712,9.82920551300049,-0.439828246831894
1743278390782979840,-0.003195890923962,-0.003195890923962,-0.00639178184792399,0.13748588953798316,9.82920551300049,-0.439828246831894
1743278390787980032,0.00213059387169778,-0.00639178184792399,-0.00639178184792399,0.1363166198033918,9.82920551300049,-0.439828246831894
1743278390792989952,0.0,-0.003195890923962,-0.003195890923962,0.1424070864858031,9.82920551300049,-0.439828246831894
1743278390797990144,0.00106529693584889,-0.00532648479565978,-0.003195890923962,0.1484856696135588,9.82920551300049,-0.439828246831894
1743278390802990080,0.00532648479565978,-0.00745707890018821,-0.00532648479565978,0.1514024864759629,9.82920551300049,-0.4382469933357419
1743278390807990016,0.0,-0.003195890923962,-0.00426118774339557,0.1453199390949465,9.82920551300049,-0.4321644459547255
1743278390812989952,0.00213059387169778,-0.00532648479565978,-0.00426118774339557,0.13923768174575255,9.82920551300049,-0.42608218860553154
1743278390817990144,0.00106529693584889,-0.00745707890018821,-0.00426118774339557,0.13456642921291587,9.82920551300049,-0.4221165834967847
1743278390823000064,-0.00106529693584889,0.0,-0.00106529693584889,0.14066086789865392,9.82920551300049,-0.4343054608682605
1743278390828000000,0.00213059387169778,-0.0106529695913196,0.0,0.14674341527967033,9.82920551300049,-0.44647055563029303
1743278390832999936,0.0,-0.00745707890018821,-0.00106529693584889,0.1528256726288643,9.82920551300049,-0.45863507032868056
1743278390838000128,-0.00213059387169778,-0.003195890923962,-0.00532648479565978,0.14705934978769028,9.823281085884418,-0.4530268148307576
1743278390842999808,-0.00106529693584889,-0.00639178184792399,-0.00213059387169778,0.14097718468475928,9.817198882866297,-0.44694464972782694
1743278390848009984,0.00213059387169778,-0.00426118774339557,-0.00852237548679113,0.13488254840260816,9.811104208591212,-0.4408500134456761
1743278390853009920,0.00213059387169778,-0.00426118774339557,-0.00213059387169778,0.13892125702742864,9.81514294239266,-0.44488872207049635
1743278390858010112,0.0,-0.00213059387169778,-0.00213059387169778,0.14500380440844507,9.821225527691249,-0.45097126945151245
1743278390863010048,0.00106529693584889,-0.00426118774339557,-0.00213059387169778,0.151086061757639,9.82730782295621,-0.4570535268007061
1743278390868009984,-0.00213059387169778,-0.00532648479565978,0.0,0.152983739972115,9.833390136085812,-0.458951205015182
1743278390873019904,0.00213059387169778,-0.00745707890018821,-0.00426118774339557,0.152983739972115,9.839484216402667,-0.458951205015182
1743278390878020096,0.00106529693584889,-0.00213059387169778,-0.00426118774339557,0.152983739972115,9.84556640611404,-0.458951205015182
1743278390883020032,0.0,-0.003195890923962,-0.003195890923962,0.14966287560473765,9.845006917263325,-0.4556303406478048
1743278390888019968,0.003195890923962,-0.00426118774339557,-0.003195890923962,0.14358032822372122,9.838924635305315,-0.4495477932667887
1743278390893019904,0.0,-0.00532648479565978,0.0,0.13749807087452726,9.832842643366472,-0.4434655359175951
1743278390898030080,0.00213059387169778,-0.00745707890018821,-0.00532648479565978,0.133860781788826,9.82920551300049,-0.439828246831894
1743278390903030016,-0.00213059387169778,-0.00106529693584889,-0.00532648479565978,0.133860781788826,9.82920551300049,-0.439828246831894
1743278390908029952,0.0,-0.00532648479565978,-0.00426118774339557,0.133860781788826,9.82920551300049,-0.439828246831894
1743278390913029888,0.00106529693584889,-0.003195890923962,-0.00106529693584889,0.13544102866671023,9.82920551300049,-0.439828246831894
1743278390918030080,0.0,-0.00852237548679113,-0.003195890923962,0.1415197039277133,9.82920551300049,-0.439828246831894
1743278390923040000,-0.003195890923962,-0.00745707890018821,-0.00426118774339557,0.14761026292349133,9.82920551300049,-0.439828246831894
1743278390928039936,0.00106529693584889,-0.00852237548679113,-0.00426118774339557,0.152983739972115,9.82920551300049,-0.4405316539022245
1743278390933039872,0.00106529693584889,-0.00958767253905535,-0.00213059387169778,0.152983739972115,9.82920551300049,-0.4465946007464089
1743278390938040064,0.00213059387169778,-0.00745707890018821,-0.00213059387169778,0.152983739972115,9.82920551300049,-0.45265783670159626
1743278390943040000,-0.003195890923962,-0.00426118774339557,-0.00852237548679113,0.152983739972115,9.82920551300049,-0.45872078354578066
1743278390948049920,-0.00106529693584889,-0.00639178184792399,0.0,0.152983739972115,9.82920551300049,-0.4530877205897398
1743278390953090048,0.00106529693584889,-0.00639178184792399,-0.003195890923962,0.152983739972115,9.82920551300049,-0.44695683087962335
1743278390958099968,0.0,-0.00639178184792399,-0.00426118774339557,0.152983739972115,9.82920551300049,-0.4408621945974725
1743278390963099904,-0.00106529693584889,-0.003195890923962,-0.00532648479565978,0.152983739972115,9.82920551300049,-0.439828246831894
1743278390968100096,0.003195890923962,-0.003195890923962,0.0,0.152983739972115,9.82920551300049,-0.439828246831894
1743278390973100032,0.00213059387169778,-0.00639178184792399,0.00106529693584889,0.152983739972115,9.82920551300049,-0.439828246831894
1743278390978099968,-0.00213059387169778,0.0,-0.00106529693584889,0.148823296578784,9.837526244174146,-0.439828246831894
1743278390983099904,0.003195890923962,-0.00426118774339557,-0.00426118774339557,0.14274113147585302,9.849690346888872,-0.439828246831894
1743278390988110080,0.00213059387169778,-0.00426118774339557,-0.00532648479565978,0.13664649519370187,9.861879391495577,-0.439828246831894
1743278390993110016,0.0,-0.00532648479565978,-0.00426118774339557,0.133860781788826,9.860857834021758,-0.4365317451376048
1743278390998109952,0.0,-0.0106529695913196,-0.003195890923962,0.133860781788826,9.84869296676516,-0.4304491977565884
1743278391003109888,0.00213059387169778,-0.00213059387169778,-0.00213059387169778,0.133860781788826,9.83652867956136,-0.4243669404073945
1743278391008120064,0.0,-0.00532648479565978,-0.00426118774339557,0.13629227300848756,9.82920551300049,-0.420705288648605
1743278391013120000,0.00213059387169778,0.00106529693584889,-0.00639178184792399,0.14237056629344677,9.82920551300049,-0.420705288648605
1743278391018119936,-0.00213059387169778,0.0,-0.00639178184792399,0.14844914942120246,9.82920551300049,-0.420705288648605
1743278391023119872,-0.00106529693584889,-0.00745707890018821,-0.003195890923962,0.1514390304855952,9.827660793884512,-0.4222499981351248
1743278391028120064,0.00213059387169778,-0.00426118774339557,-0.00106529693584889,0.14535648310457877,9.821578208585922,-0.42833254551614125
1743278391033120000,0.00213059387169778,-0.00852237548679113,-0.00213059387169778,0.1392742257553848,9.815495913320964,-0.4344148028653352
1743278391038129920,0.00213059387169778,-0.00213059387169778,-0.00532648479565978,0.133860781788826,9.810763724605925,-0.43914696208089227
1743278391043129856,0.00106529693584889,-0.00745707890018821,-0.00532648479565978,0.133860781788826,9.816846019870885,-0.43306470473169834
1743278391048130048,0.00213059387169778,0.0,-0.003195890923962,0.133860781788826,9.822928605169475,-0.42698215735068196
1743278391053129984,0.00213059387169778,0.00106529693584889,-0.00745707890018821,0.133860781788826,9.829010900434433,-0.420899900001488
1743278391058129920,0.00106529693584889,-0.003195890923962,-0.00745707890018821,0.13974488040014432,9.82920551300049,-0.420705288648605
1743278391063139840,0.0,-0.00426118774339557,-0.003195890923962,0.14583534708255566,9.82920551300049,-0.420705288648605
1743278391068140032,0.00106529693584889,-0.00213059387169778,-0.00426118774339557,0.15191393021031135,9.82920551300049,-0.420705288648605
1743278391073139968,0.003195890923962,-0.00639178184792399,-0.00639178184792399,0.152983739972115,9.82920551300049,-0.42571703854103127
1743278391078139904,-0.003195890923962,-0.00639178184792399,0.0,0.152983739972115,9.82920551300049,-0.4317995859220477
1743278391083139840,-0.00213059387169778,-0.00213059387169778,-0.00532648479565978,0.152983739972115,9.82920551300049,-0.43788184327124163
1743278391088150016,0.0,-0.00213059387169778,-0.00213059387169778,0.152983739972115,9.82920551300049,-0.439828246831894
1743278391093149952,0.00426118774339557,-0.00852237548679113,-0.00106529693584889,0.152983739972115,9.82920551300049,-0.439828246831894
1743278391098149888,0.00106529693584889,-0.00532648479565978,-0.003195890923962,0.152983739972115,9.82920551300049,-0.439828246831894
1743278391103149824,-0.003195890923962,-0.003195890923962,-0.003195890923962,0.152983739972115,9.82920551300049,-0.436556107810693
1743278391108150016,0.00106529693584889,-0.00426118774339557,-0.003195890923962,0.152983739972115,9.82920551300049,-0.43047356042967655
1743278391113159936,0.0,-0.00213059387169778,-0.00106529693584889,0.152983739972115,9.82920551300049,-0.42437912174393855
1743278391118160128,-0.00106529693584889,-0.003195890923962,-0.00532648479565978,0.152983739972115,9.831612552385126,-0.4231124330733623
1743278391123159808,0.0,-0.00745707890018821,-0.003195890923962,0.152983739972115,9.837690580432714,-0.42919072635832156
1743278391128160000,0.0,-0.00213059387169778,-0.00426118774339557,0.152983739972115,9.843768898310449,-0.4352693094860772
1743278391133160192,0.003195890923962,0.003195890923962,-0.003195890923962,0.1514631031268609,9.84832763671875,-0.439828246831894
1743278391138170112,0.00106529693584889,-0.003195890923962,-0.003195890923962,0.14536866444112287,9.84832763671875,-0.439828246831894
1743278391143170048,0.00213059387169778,-0.012783563695848,-0.00426118774339557,0.13928611706010643,9.84832763671875,-0.439828246831894
1743278391148169984,0.00106529693584889,-0.00532648479565978,-0.00852237548679113,0.13451727572285072,9.847671171432031,-0.43917175289786925
1743278391153170176,-0.00106529693584889,-0.003195890923962,-0.00213059387169778,0.1405958588506064,9.841592853554296,-0.4330931697701136
1743278391158170112,0.00106529693584889,-0.003195890923962,-0.00426118774339557,0.14667415213556562,9.835514825506708,-0.4270148764851544
1743278391163180032,0.00426118774339557,0.0,-0.00532648479565978,0.15276490866077344,9.829424334762729,-0.4209241199599466
1743278391168179968,0.00213059387169778,-0.003195890923962,-0.00213059387169778,0.14712045664889223,9.82920551300049,-0.420705288648605
1743278391173180160,0.0,-0.00639178184792399,-0.00106529693584889,0.1410379092678758,9.82920551300049,-0.420705288648605
1743278391178180096,0.00106529693584889,-0.00532648479565978,-0.00745707890018821,0.13495565191868183,9.82920551300049,-0.420705288648605
1743278391183180032,0.0,-0.00639178184792399,-0.00106529693584889,0.13884845903998655,9.82920551300049,-0.4256929658997656
1743278391188189952,-0.00106529693584889,-0.00532648479565978,-0.00426118774339557,0.1449428977257246,9.82920551300049,-0.4317874045855036
1743278391193190144,0.00106529693584889,-0.00426118774339557,-0.003195890923962,0.15102544510674104,9.82920551300049,-0.43786995196652
1743278391198190080,0.00106529693584889,-0.00958767253905535,-0.00213059387169778,0.152983739972115,9.82920551300049,-0.439828246831894
1743278391203190016,-0.00106529693584889,-0.00532648479565978,-0.00852237548679113,0.152983739972115,9.82920551300049,-0.439828246831894
1743278391208189952,0.00106529693584889,-0.00745707890018821,-0.00106529693584889,0.152983739972115,9.82920551300049,-0.439828246831894
1743278391213200128,-0.00106529693584889,-0.003195890923962,-0.00639178184792399,0.152983739972115,9.82920551300049,-0.4365801804519587
1743278391218200064,0.00213059387169778,-0.00532648479565978,-0.00106529693584889,0.152983739972115,9.82920551300049,-0.43049792310276475
1743278391223200000,0.0,-0.00745707890018821,-0.00106529693584889,0.152983739972115,9.82920551300049,-0.42441537572174837
1743278391228199936,0.0,-0.00745707890018821,-0.00532648479565978,0.152983739972115,9.831576033786394,-0.423075912881006
1743278391233200128,0.003195890923962,-0.00426118774339557,-0.003195890923962,0.152983739972115,9.83765435166413,-0.4291544960087617
1743278391238210048,-0.00106529693584889,-0.00852237548679113,-0.00532648479565978,0.152983739972115,9.843744552577961,-0.43524496269117297
1743278391243209984,0.003195890923962,-0.00639178184792399,-0.00745707890018821,0.1514874657999491,9.846831427839227,-0.43833197265972806
1743278391248209920,0.00213059387169778,-0.00426118774339557,-0.00426118774339557,0.14540520845075514,9.840749435900385,-0.43224971531053413
1743278391253210112,0.00106529693584889,-0.00106529693584889,-0.00106529693584889,0.1393226610697387,9.834667153942375,-0.4261671679295177
1743278391258210048,0.00106529693584889,-0.00532648479565978,-0.00213059387169778,0.13448115044817316,9.82858514047387,-0.4213256573079522
1743278391263219968,0.00213059387169778,-0.00532648479565978,-0.003195890923962,0.14057578673032428,9.822490466198785,-0.4274202935901033
1743278391268219904,-0.00106529693584889,-0.00213059387169778,-0.00213059387169778,0.14665795183325528,9.816408263180664,-0.4335024586930343
1743278391273220096,0.00106529693584889,-0.00639178184792399,-0.00106529693584889,0.15274040696360996,9.810325770133312,-0.43958491382338893
1743278391278220032,0.003195890923962,-0.00745707890018821,-0.00213059387169778,0.152983739972115,9.821752624597291,-0.439828246831894
1743278391283219968,0.003195890923962,-0.00532648479565978,-0.00426118774339557,0.152983739972115,9.833909747758693,-0.439828246831894
1743278391288229888,-0.00106529693584889,-0.00532648479565978,-0.003195890923962,0.152983739972115,9.846090637945155,-0.439828246831894
1743278391293230080,0.00106529693584889,0.0,-0.003195890923962,0.152983739972115,9.843367698207919,-0.4348680918756883
1743278391298230016,0.00213059387169778,-0.003195890923962,-0.00852237548679113,0.152983739972115,9.837289578035499,-0.4287897064618749
1743278391303229952,0.003195890923962,-0.00852237548679113,-0.00426118774339557,0.152983739972115,9.831211168028537,-0.4227110312008719
1743278391308229888,-0.00213059387169778,-0.00532648479565978,-0.00106529693584889,0.14890856464135904,9.82920551300049,-0.424780463979361
1743278391313230080,0.00426118774339557,0.0,-0.00639178184792399,0.14282610951100436,9.82920551300049,-0.43086291910971564
1743278391318240000,0.00426118774339557,-0.00532648479565978,-0.00213059387169778,0.13673176325627692,9.82920551300049,-0.436957265364443
1743278391323239936,0.00213059387169778,-0.00745707890018821,-0.00426118774339557,0.13707230415912902,9.832416895230178,-0.439828246831894
1743278391328239872,0.0,-0.00532648479565978,-0.003195890923962,0.14315456150832295,9.83849888716902,-0.439828246831894
1743278391333240064,-0.00106529693584889,-0.00532648479565978,-0.00639178184792399,0.1492371088893394,9.84458116912703,-0.439828246831894
1743278391338240000,-0.00106529693584889,-0.00213059387169778,-0.00426118774339557,0.152983739972115,9.845993634531576,-0.43749414279184934
1743278391343249920,-0.00106529693584889,-0.00106529693584889,-0.00532648479565978,0.152983739972115,9.839903143787597,-0.43140338626664154
1743278391348249856,0.00426118774339557,-0.003195890923962,-0.00213059387169778,0.152983739972115,9.83382511574001,-0.42532509298168236
1743278391353250048,-0.00106529693584889,-0.00426118774339557,-0.00213059387169778,0.152983739972115,9.830665179465045,-0.42216501881113866
1743278391358249984,0.0,-0.00213059387169778,-0.003195890923962,0.152983739972115,9.836747171403887,-0.4282472761603326
1743278391363249920,0.00213059387169778,-0.00745707890018821,-0.00639178184792399,0.152983739972115,9.842829453361897,-0.434329823541349
1743278391368259840,0.00106529693584889,-0.00958767253905535,-0.00426118774339557,0.15238811302535085,9.84773203576325,-0.439828246831894
1743278391373260032,0.0,-0.00106529693584889,-0.00639178184792399,0.14630952989759516,9.841653717885515,-0.439828246831894
1743278391378259968,0.00106529693584889,-0.00426118774339557,-0.003195890923962,0.14023123661263595,9.835575689837928,-0.439828246831894
1743278391383259904,0.00106529693584889,-0.00106529693584889,-0.003195890923962,0.13415265348488026,9.829497371960192,-0.439828246831894
1743278391388259840,0.003195890923962,-0.00532648479565978,-0.00213059387169778,0.1396509770927842,9.82920551300049,-0.439828246831894
1743278391393270016,-0.00106529693584889,-0.00958767253905535,-0.00639178184792399,0.14574570581034474,9.82920551300049,-0.439828246831894
1743278391398269952,0.00106529693584889,-0.00958767253905535,-0.00532648479565978,0.1518279631595387,9.82920551300049,-0.439828246831894
1743278391403269888,-0.00106529693584889,-0.00426118774339557,-0.00213059387169778,0.152983739972115,9.834131993861977,-0.43490155098508226
1743278391408269824,0.00213059387169778,-0.003195890923962,-0.00532648479565978,0.152983739972115,9.84021389355858,-0.4288193858821513
1743278391413270016,0.00213059387169778,-0.00532648479565978,0.0,0.152983739972115,9.846296083269953,-0.42273693075179664
1743278391418279936,0.00213059387169778,-0.003195890923962,-0.00426118774339557,0.15704650574139184,9.84426504823564,-0.42476805441788207
1743278391423280128,0.0,-0.003195890923962,-0.00639178184792399,0.16312905312240794,9.838182766277631,-0.43085060179889845
1743278391428280064,0.00106529693584889,-0.003195890923962,-0.00426118774339557,0.16921160050342404,9.832100484319623,-0.4369331491799149
1743278391433280000,0.00106529693584889,-0.00426118774339557,-0.00426118774339557,0.1689296573432938,9.832382415176651,-0.4366512060197846
1743278391438280192,0.0,-0.00426118774339557,-0.00213059387169778,0.1628664213881064,9.83844538655152,-0.43058797006459687
1743278391443290112,0.00106529693584889,-0.00532648479565978,-0.003195890923962,0.15679133188179545,9.844520210960262,-0.4245128805582856
1743278391448290048,0.00532648479565978,-0.0106529695913196,-0.003195890923962,0.152983739972115,9.846064941499977,-0.420705288648605
1743278391453329920,-0.003195890923962,-0.00639178184792399,-0.00106529693584889,0.152983739972115,9.839934319322373,-0.420705288648605
1743278391458339840,0.0,-0.00106529693584889,-0.00745707890018821,0.152983739972115,9.833840239005518,-0.420705288648605
1743278391463340032,-0.00106529693584889,-0.00745707890018821,-0.003195890923962,0.152983739972115,9.83065207719774,-0.422151915972068
1743278391468339968,0.00106529693584889,-0.00426118774339557,-0.00745707890018821,0.152983739972115,9.836730197370162,-0.4282303013858814
1743278391473340160,0.00213059387169778,-0.00532648479565978,0.0,0.152983739972115,9.842808607377124,-0.43430897664688445
1743278391478339840,-0.00106529693584889,-0.00745707890018821,-0.00639178184792399,0.152983739972115,9.84832763671875,-0.439828246831894
1743278391483350016,-0.00106529693584889,-0.00213059387169778,-0.00426118774339557,0.152983739972115,9.84832763671875,-0.439828246831894
1743278391488349952,-0.00106529693584889,-0.00745707890018821,-0.00106529693584889,0.152983739972115,9.84832763671875,-0.439828246831894
1743278391493350144,0.0,-0.00532648479565978,-0.00852237548679113,0.152983739972115,9.84832763671875,-0.439828246831894
1743278391498349824,-0.00106529693584889,-0.00532648479565978,-0.00426118774339557,0.14720920193786569,9.842553350666961,-0.43405370879764466
1743278391503350016,-0.00106529693584889,-0.00639178184792399,-0.00426118774339557,0.14113061881011,9.836475032789226,-0.427975125669889
1743278391508359936,-0.003195890923962,-0.003195890923962,-0.00532648479565978,0.13504015212769868,9.830384831875396,-0.4218846589874777
1743278391513360128,0.00213059387169778,-0.00745707890018821,-0.00213059387169778,0.13876318968417792,9.82920551300049,-0.4256076965439569
1743278391518359808,0.00213059387169778,-0.00745707890018821,-0.00532648479565978,0.14484544703337188,9.82920551300049,-0.43168995389315085
1743278391523360000,0.00213059387169778,-0.00958767253905535,-0.00639178184792399,0.1509279944143883,9.82920551300049,-0.4377725012741673
1743278391528359936,-0.00213059387169778,0.00106529693584889,-0.00213059387169778,0.152983739972115,9.82920551300049,-0.439828246831894
1743278391533370112,0.003195890923962,-0.003195890923962,-0.003195890923962,0.152983739972115,9.82920551300049,-0.439828246831894
1743278391538369792,0.00213059387169778,-0.00106529693584889,0.0,0.152983739972115,9.82920551300049,-0.439828246831894
1743278391543369984,0.00213059387169778,-0.00213059387169778,0.00106529693584889,0.152983739972115,9.826044709693742,-0.439828246831894
1743278391548369920,-0.00106529693584889,-0.00532648479565978,-0.00852237548679113,0.152983739972115,9.819966286388299,-0.439828246831894
1743278391553370112,0.0,-0.00639178184792399,-0.00213059387169778,0.152983739972115,9.813887573233862,-0.439828246831894
1743278391558379776,-0.00106529693584889,-0.00745707890018821,-0.00213059387169778,0.152983739972115,9.812369316099918,-0.44211511306796325
1743278391563379968,-0.00106529693584889,-0.00213059387169778,-0.00106529693584889,0.152983739972115,9.81845180914727,-0.44819756819831763
1743278391568380160,-0.00213059387169778,-0.003195890923962,-0.00532648479565978,0.152983739972115,9.824534302194623,-0.454280023328672
1743278391573380096,0.0,-0.00745707890018821,0.0,0.152983739972115,9.82920551300049,-0.4561291953824675
1743278391578380032,0.00106529693584889,-0.00639178184792399,-0.00213059387169778,0.152983739972115,9.82920551300049,-0.443964100620435
1743278391583389952,0.00213059387169778,-0.00426118774339557,-0.003195890923962,0.152983739972115,9.82920551300049,-0.43177522324895923
1743278391588390144,-0.00106529693584889,-0.00532648479565978,-0.00639178184792399,0.152983739972115,9.82920551300049,-0.4212525201426339
1743278391593390080,0.0,-0.00213059387169778,-0.00213059387169778,0.152983739972115,9.82920551300049,-0.4273309055564473
1743278391598390016,-0.00213059387169778,-0.003195890923962,-0.00106529693584889,0.152983739972115,9.82920551300049,-0.43340958081745035
1743278391603389952,0.00106529693584889,-0.00213059387169778,-0.00426118774339557,0.152983739972115,9.82920551300049,-0.43948796623126374
1743278391608400128,0.00106529693584889,-0.003195890923962,-0.00106529693584889,0.152983739972115,9.82920551300049,-0.43407410274519564
1743278391613400064,0.0,-0.00639178184792399,-0.00639178184792399,0.152983739972115,9.82920551300049,-0.42799193764226473
1743278391618400000,0.00213059387169778,0.00106529693584889,-0.00213059387169778,0.152983739972115,9.82920551300049,-0.42190948251191
1743278391623399936,0.00213059387169778,-0.00213059387169778,-0.0117182666435838,0.152983739972115,9.834083345360387,-0.420705288648605
1743278391628400128,-0.00213059387169778,-0.00532648479565978,-0.00532648479565978,0.152983739972115,9.840165627318395,-0.420705288648605
1743278391633410048,0.0,-0.0106529695913196,-0.00532648479565978,0.152983739972115,9.846259800062226,-0.420705288648605
1743278391638409984,-0.003195890923962,-0.003195890923962,0.0,0.152983739972115,9.844315807800973,-0.42471729263746605
1743278391643409920,-0.00106529693584889,-0.00852237548679113,-0.003195890923962,0.152983739972115,9.838237779753387,-0.4307955859224253
1743278391648410112,-0.00106529693584889,-0.00745707890018821,-0.00426118774339557,0.152983739972115,9.832159461875651,-0.43687416905018095
1743278391653410048,0.003195890923962,-0.00532648479565978,-0.00213059387169778,0.152983739972115,9.82920551300049,-0.439828246831894
1743278391658419968,0.00639178184792399,-0.00532648479565978,-0.00426118774339557,0.152983739972115,9.82920551300049,-0.439828246831894
1743278391663419904,0.0,-0.00639178184792399,-0.00745707890018821,0.152983739972115,9.82920551300049,-0.439828246831894
1743278391668420096,0.00426118774339557,-0.003195890923962,-0.003195890923962,0.15072238647398656,9.82920551300049,-0.439828246831894
1743278391673420032,-0.00106529693584889,-0.00426118774339557,-0.00106529693584889,0.14464409318902735,9.82920551300049,-0.439828246831894
1743278391678419968,-0.00213059387169778,-0.00532648479565978,0.00106529693584889,0.13856551006127166,9.82920551300049,-0.439828246831894
1743278391683429888,0.00213059387169778,-0.00958767253905535,-0.00852237548679113,0.133860781788826,9.82920551300049,-0.4412140062455338
1743278391688430080,0.0,-0.00639178184792399,-0.003195890923962,0.133860781788826,9.82920551300049,-0.4472926815065365
1743278391693430016,-0.00106529693584889,-0.003195890923962,-0.00532648479565978,0.133860781788826,9.82920551300049,-0.4533710669203496
1743278391698429952,0.00213059387169778,-0.00852237548679113,-0.00852237548679113,0.133860781788826,9.82920551300049,-0.4584523578463755
1743278391703429888,0.00106529693584889,-0.00213059387169778,-0.00745707890018821,0.133860781788826,9.82920551300049,-0.45237019274344487
1743278391708440064,-0.00213059387169778,-0.00213059387169778,-0.00213059387169778,0.133860781788826,9.82920551300049,-0.446275556461294
1743278391713440000,-0.00213059387169778,-0.00426118774339557,-0.00426118774339557,0.133860781788826,9.82920551300049,-0.4401933913583634
1743278391718439936,0.00213059387169778,-0.00745707890018821,-0.00213059387169778,0.1395745394380799,9.82920551300049,-0.439828246831894
1743278391723439872,0.00213059387169778,-0.00213059387169778,-0.00426118774339557,0.14565292485189332,9.82920551300049,-0.439828246831894
1743278391728440064,0.00532648479565978,-0.00426118774339557,-0.00852237548679113,0.15173160011289638,9.82920551300049,-0.439828246831894
1743278391733440000,0.00106529693584889,-0.003195890923962,-0.00532648479565978,0.152983739972115,9.82920551300049,-0.439828246831894
1743278391738450176,-0.00213059387169778,-0.00426118774339557,0.0,0.152983739972115,9.82920551300049,-0.439828246831894
1743278391743449856,0.003195890923962,-0.00745707890018821,-0.00213059387169778,0.152983739972115,9.82920551300049,-0.439828246831894
1743278391748450048,-0.00106529693584889,-0.00426118774339557,-0.00426118774339557,0.152983739972115,9.833168650453292,-0.43586493643284135
1743278391753449984,0.003195890923962,-0.00213059387169778,-0.00532648479565978,0.152983739972115,9.839246678500878,-0.4297866431478822
1743278391758449920,0.00213059387169778,-0.00852237548679113,-0.00106529693584889,0.152983739972115,9.845324996378613,-0.4237080600201265
1743278391763459840,0.00106529693584889,-0.003195890923962,-0.00213059387169778,0.14989599786094462,9.845240029346817,-0.4237930307597754
1743278391768460032,0.0,-0.00213059387169778,-0.00426118774339557,0.14381732259994157,9.839161619339855,-0.42987170602077845
1743278391773459968,0.00213059387169778,-0.00426118774339557,-0.00426118774339557,0.13773893718612815,9.833083499167435,-0.43595009143459185
1743278391778459904,0.00213059387169778,0.0,-0.00426118774339557,0.136062669989744,9.831407305118015,-0.439828246831894
1743278391783459840,0.00532648479565978,-0.00532648479565978,-0.00106529693584889,0.142144835092675,9.83748920481462,-0.439828246831894
1743278391788470016,0.00213059387169778,-0.00639178184792399,0.0,0.14823947137482613,9.843583575146242,-0.439828246831894
1743278391793469952,-0.00213059387169778,-0.00745707890018821,-0.00639178184792399,0.152983739972115,9.846989778304089,-0.43849033003480126
1743278391798470144,0.003195890923962,-0.00958767253905535,-0.00213059387169778,0.152983739972115,9.840907496346079,-0.4324077826537848
1743278391803469824,0.00106529693584889,-0.00639178184792399,-0.00639178184792399,0.152983739972115,9.834825504407236,-0.4263255253045909
1743278391808470016,-0.003195890923962,-0.00532648479565978,-0.00639178184792399,0.1525217305545276,9.82920551300049,-0.42162930748377975
1743278391813479936,0.00532648479565978,-0.00745707890018821,-0.003195890923962,0.1464312638721163,9.82920551300049,-0.4338102408486021
1743278391818480128,0.00213059387169778,-0.00639178184792399,-0.00106529693584889,0.1403526807443606,9.82920551300049,-0.44596740710411314
1743278391823479808,0.00639178184792399,-0.00745707890018821,-0.003195890923962,0.1342743874594014,9.82920551300049,-0.4581239936740312
1743278391828480000,0.0,-0.003195890923962,-0.00426118774339557,0.13952945375916578,9.823536805692607,-0.44761386107450274
1743278391833479936,0.00213059387169778,-0.00213059387169778,-0.00426118774339557,0.14561171110835974,9.817454510427648,-0.43544934637611515
1743278391838490112,0.00213059387169778,-0.00852237548679113,-0.00213059387169778,0.15170643982592025,9.811359743716578,-0.4232598889409944
1743278391843489792,0.003195890923962,-0.00958767253905535,0.0,0.1481787827691158,9.814887422764201,-0.4255102458516042
1743278391848489984,0.00213059387169778,-0.00532648479565978,-0.00639178184792399,0.14209623538809937,9.82097000806279,-0.4315927932326206
1743278391853490176,-0.00213059387169778,-0.00426118774339557,-0.00106529693584889,0.13601368800708294,9.82705259336138,-0.437675340613637
1743278391858490112,0.00213059387169778,-0.00532648479565978,-0.00639178184792399,0.13778757199552225,9.83313213185456,-0.439828246831894
1743278391863500032,-0.00106529693584889,-0.00532648479565978,-0.00106529693584889,0.14387832852073007,9.83922262259854,-0.439828246831894
1743278391868499968,0.003195890923962,-0.00532648479565978,-0.003195890923962,0.14995662180568928,9.845300650646125,-0.439828246831894
1743278391873500160,-0.00426118774339557,-0.00532648479565978,-0.00745707890018821,0.152983739972115,9.845274314934755,-0.4367747918048417
1743278391878500096,0.00213059387169778,-0.00426118774339557,-0.00106529693584889,0.152983739972115,9.839192322995913,-0.43069253445564776
1743278391883500032,-0.00106529693584889,-0.00532648479565978,-0.00106529693584889,0.152983739972115,9.833110041037905,-0.4246099870746313
1743278391888509952,0.00106529693584889,-0.003195890923962,-0.003195890923962,0.15955286453204554,9.805118694509362,-0.420705288648605
1743278391893510144,0.00213059387169778,-0.00532648479565978,-0.00745707890018821,0.1778002394023585,9.738211574324472,-0.420705288648605
1743278391898510080,0.00426118774339557,-0.00532648479565978,-0.00426118774339557,0.19604674418994833,9.671307644446665,-0.420705288648605
1743278391903510016,-0.003195890923962,0.00106529693584889,-0.0191753450781107,0.20641110980925143,9.633304925641395,-0.420705288648605
1743278391908509952,-0.0149141578003764,-0.00106529693584889,-0.0905502364039421,0.18816432828272892,9.700209870229818,-0.420705288648605
1743278391913520128,-0.0181100480258465,0.00213059387169778,-0.12037855386734,0.1698801326316706,9.767252000103507,-0.420705288648605
1743278391918520064,0.00852237548679113,-0.00213059387169778,0.0351548008620739,0.14983488629762037,9.836402889322654,-0.42160496068887554
1743278391923520000,0.0181100480258465,-0.00426118774339557,0.122509144246578,0.1072847836806736,9.933660219366741,-0.4337621269443866
1743278391928519936,0.00106529693584889,-0.00532648479565978,0.0181100480258465,0.06473670996429026,10.030912911926084,-0.4459187135143047
1743278391933520128,-0.0117182666435838,-0.00745707890018821,-0.0980073139071465,0.022186607347343457,10.128170241970171,-0.45807587976981573
1743278391938530048,-0.00958767253905535,-0.00745707890018821,-0.0809625685214996,0.10380853404613252,9.948864371510226,-0.4476598016410168
1743278391943529984,0.00532648479565978,-0.00532648479565978,0.025567127391696,0.19487276527612757,9.748522819766773,-0.4355179100570045
1743278391948529920,0.00852237548679113,-0.00426118774339557,0.0585913322865963,0.2859326543245839,9.548190820834295,-0.42337659743024875
1743278391953560064,0.0,-0.00426118774339557,0.0191753450781107,0.24381594990711786,9.628417447638318,-0.41592440408687176
1743278391958560000,-0.00426118774339557,-0.00426118774339557,-0.0479383654892445,0.1647465652669663,9.786556517875008,-0.40984214673767816
1743278391963560192,-0.0106529695913196,-0.00532648479565978,-0.0724401921033859,0.08567341021125802,9.944703128957162,-0.403759599356662
1743278391968570112,0.0,-0.00532648479565978,-0.0106529695913196,0.08085661139610512,9.97390976737327,-0.4446431336692963
1743278391973570048,0.00958767253905535,-0.00745707890018821,0.0340895019471645,0.11732812555661273,9.931359420228954,-0.5115075764942522
1743278391978569984,0.00106529693584889,-0.00745707890018821,-0.0117182666435838,0.15379790065960747,9.888811101996861,-0.5783688310470916
1743278391983570176,-0.0106529695913196,-0.00852237548679113,-0.0500689558684826,0.22965948828606345,9.843218126342416,-0.6997786664776902
1743278391988569856,0.0,0.00639178184792399,-0.00852237548679113,0.3452224490128042,9.794560370874981,-0.8761641864779568
1743278391993580032,0.00426118774339557,0.0394159853458405,0.0149141578003764,0.46102236588428047,9.74580284508257,-1.052911376277471
1743278391998579968,-0.00958767253905535,0.10759499669075,-0.0404812842607498,0.5376084719008327,9.725294685551804,-1.0820524505707574
1743278392003580160,-0.00958767253905535,0.175773993134499,-0.0479383654892445,0.5436909270311874,9.755706847452583,-0.8448366151736858
1743278392008580096,-0.0117182666435838,0.197079926729202,-0.0564607381820679,0.5497730921341184,9.786117559221667,-0.6076320908502074
1743278392013580032,-0.0298283156007528,0.156598642468452,-0.0937461331486702,0.5880926159474166,9.815240329385228,-0.5419166143429331
1743278392018589952,-0.0426118783652782,0.122509144246578,-0.127835631370544,0.7465480787641532,9.839617932161376,-1.1147941642338277
1743278392023590144,-0.0458077676594257,0.103333801031113,-0.127835631370544,0.9046943675469352,9.863947970015154,-1.6865539308693314
1743278392028590080,-0.00213059387169778,0.123574443161488,-0.052199549973011,1.0449510101354667,9.881890441936191,-2.2161355374101133
1743278392033590016,0.0351548008620739,0.17364339530468,0.0351548008620739,0.9476316901327961,9.814983625087276,-2.185723223841344
1743278392038589952,0.0117182666435838,0.230104148387909,0.00106529693584889,0.8503170105707134,9.748079998530983,-2.155312360411501
1743278392043600128,0.100137911736965,0.310001403093338,-0.0894849449396133,0.7528027920633646,9.681039189391983,-2.124839141007814
1743278392048600064,-0.0213059391826391,0.339829742908478,-0.159794539213181,0.49760409717157716,9.580329637693985,-2.060601483169969
1743278392053600000,-0.00639178184792399,0.402682244777679,-0.0234365332871675,0.2301422577971084,9.4769921203635,-1.9937359795120666
1743278392058599936,0.0617872215807438,0.475122451782227,0.082027867436409,-0.03730682829491827,9.373659530437045,-1.9268736641768636
1743278392063600128,-0.265258938074112,0.433575838804245,0.113986775279045,-0.09085831187807168,9.370157408158148,-1.5603138847773683
1743278392068610048,0.138488605618477,0.575260400772095,-0.0458077676594257,-0.08476387081785247,9.394535010934298,-1.1093252320742608
1743278392073609984,-0.0106529695913196,0.704161286354065,-0.037285391241312,-0.0786813210669879,9.418865048788074,-0.6592165362911946
1743278392078609920,-0.0681790038943291,0.688181817531586,-0.0426118783652782,-0.20884535783145997,9.672866094089798,-0.3765219030323659
1743278392083610112,0.0351548008620739,0.637047588825226,-0.0351548008620739,-0.41564891520694686,10.056061032721122,-0.18796570393850576
1743278392088610048,0.117182664573193,0.577390968799591,-0.00532648479565978,-0.6224426116460722,10.439237699612093,0.0005815043009249066
1743278392093619968,0.0905502364039421,0.526256680488586,-0.0564607381820679,-0.7387890972868961,10.4385079334007,0.09864392915406871
1743278392098619904,-0.0703096017241478,0.457012385129929,-0.0458077676594257,-0.7631181645994358,10.049243159726176,0.10472618887299791
1743278392103620096,0.112921476364136,0.432510554790497,0.0213059391826391,-0.7874483920410734,9.65995982400055,0.11080873862386258
1743278392108620032,-0.128900930285454,0.401616930961609,0.0181100480258465,-0.777343132464008,9.460142747817827,0.0630947485123921
1743278392113619968,0.00639178184792399,0.384572207927704,0.00958767253905535,-0.7044000970380813,9.60602874288396,-0.08279131049794232
1743278392118629888,0.0287630185484886,0.339829742908478,-0.00426118774339557,-0.6313144588822068,9.75219994326183,-0.2289625749450221
1743278392123630080,-0.0170447509735823,0.296152532100677,-0.0394159853458405,-0.5583614318144527,9.881501039606894,-0.4297925518900739
1743278392128630016,-0.00532648479565978,0.304674923419952,-0.0106529695913196,-0.4853742962294214,9.948405984195327,-0.8373040123017061
1743278392133629952,0.00958767253905535,0.352613270282745,0.0191753450781107,-0.4123836802602604,10.015314119139232,-1.2448349048558405
1743278392138629888,0.051134254783392,0.464469462633133,-0.0223712362349033,-0.3506357667095747,10.088239963575203,-1.6146145302703212
1743278392143640064,0.00639178184792399,0.568868577480316,-0.0266324244439602,-0.4481499947151564,10.246700582897,-1.4500592746663792
1743278392148640000,0.177904590964317,0.656222939491272,-0.0735054910182953,-0.5454646837560364,10.404836951403587,-1.285840741056868
1743278392153639936,-0.0213059391826391,0.748903751373291,0.0,-0.642784013237956,10.562980860626805,-1.1216143767033002
1743278392158639872,0.0660484060645103,0.826670408248901,0.0202406421303749,-0.7288601640271187,10.052345551723313,-0.9686334350055112
1743278392163640064,-0.0809625685214996,0.817082762718201,-0.0106529695913196,-0.8140158652789193,9.486668455700922,-0.8165696746449578
1743278392168649984,-0.552889108657837,0.825605094432831,0.0948114320635796,-0.8993380448709509,8.91988546796878,-0.6642086315181073
1743278392173649920,0.313197284936905,0.948114335536957,-0.13316211104393,-0.9606832216066661,9.062756680133393,-0.46944154314866776
1743278392178649856,0.199210524559021,0.892718851566315,0.128900930285454,-1.0153878801168252,9.403141104091102,-0.2627794548266613
1743278392183650048,0.0213059391826391,0.842649877071381,-0.131031513214111,-1.0700951472130562,9.743541759245414,-0.05610751184401286
1743278392188649984,-0.249279484152794,0.86715167760849,-0.0340895019471645,-1.020382289676097,10.049254140475789,-0.29806584121217694
1743278392193659904,0.0809625685214996,0.811756253242493,-0.025567127391696,-0.9106771347665005,10.335706656155683,-0.7978338269814235
1743278392198659840,0.22797355055809,0.680724740028381,-0.0948114320635796,-0.8011964645652465,10.621573016978136,-1.2965791600720709
1743278392203660032,-0.320654392242432,0.615741610527039,0.0436771735548973,-0.7157484206018759,10.408667620049835,-1.380695386366409
1743278392208659968,-0.451685905456543,0.669006526470184,-0.0223712362349033,-0.6549258281520557,9.684878730085426,-1.0400888136695576
1743278392213659904,-0.675398290157318,0.715879559516907,0.0660484060645103,-0.5941003353831068,8.961055326321487,-0.6994659991829633
1743278392218669824,-0.390963971614838,0.640243411064148,-0.167251631617546,-0.537449119146215,8.69172193345758,-0.6749192560710313
1743278392223670016,-0.165121033787727,0.517734348773956,-0.105464398860931,-0.48882042570452555,9.263108671680882,-1.234149178547777
1743278392228669952,0.0553954392671585,0.434641152620316,0.025567127391696,-0.44019405100656306,9.83446816468493,-1.793352435474147
1743278392233669888,0.260997772216797,0.411204636096954,0.0628525167703629,-0.34520011683842106,10.238038056800837,-2.271216499912847
1743278392238670080,0.193884029984474,0.465534776449203,-0.00852237548679113,-0.07148535198118466,9.994736161560184,-2.435445317117859
1743278392243680000,-0.0894849449396133,0.633851706981659,-0.0490036569535732,0.20276452184797378,9.750958614130665,-2.599995199624483
1743278392248680192,-0.0905502364039421,0.78086268901825,-0.109725579619408,0.4686888812300085,9.53024835619091,-2.7513701295060766
1743278392253679872,0.0841584652662277,0.863955795764923,-0.0500689558684826,0.6207430941124555,9.639727403874046,-2.714877138888492
1743278392258680064,0.153402760624886,0.966224312782288,0.0905502364039421,0.7728045576845637,9.749211672054425,-2.678382408106365
1743278392263680000,0.250344783067703,1.08127641677856,-0.00745707890018821,0.9248587705670107,9.858690719737561,-2.6418894174887804
1743278392268690176,0.0351548008620739,1.23680973052979,0.00639178184792399,0.8416884349482858,10.276838787390245,-2.1622845094761614
1743278392273690112,0.238626524806023,1.33055591583252,0.0383506901562214,0.7382900031383444,10.720843611797163,-1.6452924073000996
1743278392278690048,0.659418821334839,1.28900921344757,0.17364339530468,0.6348866407847089,11.16486960852893,-1.1282756524082793
1743278392283689984,0.959832549095154,1.18993675708771,0.288695484399796,0.03498755108961926,11.008056786024323,-0.9047484897820235
1743278392288690176,0.231169447302818,1.16863071918488,0.484710097312927,-0.7065999125858677,10.679813372911243,-0.7649410210043568
1743278392293689856,0.355809181928635,1.24852800369263,0.317458480596542,-1.4481520154248264,10.35158561130556,-0.6251402186137193
1743278392298700032,0.206667602062225,1.2762256860733,0.281238406896591,-1.8290423669571212,10.338762740505688,-0.4425760301145108
1743278392303699968,0.417596399784088,1.23361384868622,0.235430628061295,-1.9993456485660768,10.50906609794616,-0.23577917360383382
1743278392308700160,0.148076266050339,1.18887138366699,0.340895026922226,-2.169657051069678,10.679377576284894,-0.02897245600610765
1743278392313699840,0.0926808342337608,1.1941978931427,0.534779071807861,-1.9973869790181977,10.51008595819985,-0.14689007189739706
1743278392318700032,0.459142982959747,1.13454127311707,0.474057167768478,-1.4685500384927348,9.987327581855718,-0.602784007784883
1743278392323709952,0.663679957389832,1.07488465309143,0.437837034463882,-0.9386792283047911,9.46354721936672,-1.059569210665092
1743278392328710144,0.901241183280945,1.05464398860931,0.365396857261658,-0.41393188960045946,9.31526694475843,-1.5176705207078967
1743278392333710080,1.23361384868622,1.07168877124786,0.20027582347393,0.10306023153348298,9.87483507587344,-1.979922382572739
1743278392338710016,1.51485228538513,1.09512531757355,0.0585913322865963,0.6200770053840879,10.434429889937812,-2.442196286870554
1743278392343709952,1.66932034492493,1.10897409915924,0.0276977196335793,1.1001688552449154,10.845363021113748,-2.8921107511686865
1743278392348720128,1.70980167388916,1.18780601024628,0.0830931663513184,1.4351657314547417,10.668728214821083,-3.294106926681835
1743278392353720064,1.75134813785553,1.31138062477112,0.193884029984474,1.7694771186726093,10.492454848362367,-3.6952805155600226
1743278392358720000,1.72791159152985,1.47650146484375,0.280173093080521,2.0918157479305064,10.296400748733316,-4.079192499168144
1743278392363719936,1.64268779754639,1.66718971729279,0.313197284936905,2.2195412530072436,9.779416222086724,-4.182589343833156
1743278392368720128,1.68423449993134,1.84935557842255,0.325980871915817,2.347272848661687,9.262407043085611,-4.285991118966179
1743278392373730048,1.61605536937714,2.03897833824158,0.291891366243362,2.4752541580020844,8.744387117549163,-4.389595043287667
1743278392378729984,1.69275689125061,2.23392772674561,0.274846613407135,2.385698552343842,9.090955668962092,-4.258994710446486
1743278392383729920,1.60966372489929,2.41822409629822,0.183231070637703,2.2762179200583548,9.51671391090024,-4.106938238800878
1743278392388730112,1.36144948005676,2.56630039215088,0.0191753450781107,2.166732067200063,9.94249245507681,-3.9548745163578993
1743278392393730048,0.992856740951538,2.67922186851501,-0.192818760871887,1.986918080736058,10.588586757628148,-3.9061307017493188
1743278392398739968,0.52306079864502,2.7708375453949,-0.421857595443726,1.7859229635292149,11.301205764671145,-3.8878583182674564
1743278392403739904,-0.0138488598167896,2.83262467384338,-0.578456223011017,1.5853391335613503,12.012366571595038,-3.8696233247394214
1743278392408740096,-0.552889108657837,2.8816282749176,-0.644504606723785,1.132562042047438,12.18145192228135,-3.6603940381117743
1743278392413740032,-1.08234167098999,2.90506482124329,-0.655157625675201,0.530418280109019,12.029395147309634,-3.338034284857207
1743278392418739968,-1.55320298671722,2.92104434967041,-0.64343935251236,-0.07175419499338531,11.877331121526082,-3.015659159910624
1743278392423749888,-1.94203627109528,2.93595838546753,-0.628525197505951,-0.6012004470205055,11.571261260250393,-2.6897002121908047
1743278392428750080,-2.2136869430542,2.94021964073181,-0.593370378017426,-1.0513023352102275,11.1029123289641,-2.3612475214006667
1743278392433750016,-2.37774276733398,2.9530029296875,-0.578456223011017,-1.5013827613606499,10.63458572978401,-2.032810492096834
1743278392438749952,-2.46509695053101,2.97111296653748,-0.589109182357788,-1.780939198406298,10.168515535177999,-1.7834425705110264
1743278392443749888,-2.50451302528381,2.99454975128174,-0.613611042499542,-1.7323430132987212,9.706851984927383,-1.6862502002958726
1743278392448760064,-2.52262306213379,3.006267786026,-0.666875898838043,-1.6836471841131497,9.244241816362866,-1.5888585419247296
1743278392453779968,-2.52581882476807,3.02757382392883,-0.732924282550812,-1.6093221495762051,8.800120127682428,-1.4936957365710204
1743278392458780160,-2.52368831634521,3.06485915184021,-0.797907412052155,-1.4330404912202548,8.43539915730104,-1.4085942450235482
1743278392463779840,-2.47148895263672,3.10321021080017,-0.855433464050293,-1.2567672384364172,8.070695577772714,-1.3234968113385381
1743278392468780032,-2.37987351417542,3.13623404502869,-0.893784165382385,-1.0824512655771026,7.736193694570801,-1.224262607946704
1743278392473779968,-2.23179697990417,3.15327882766724,-0.921481847763062,-0.9425614113369081,7.930823281186103,-0.8775790312006915
1743278392478790144,-2.00062775611877,3.13197302818298,-0.933200120925903,-0.8023847198580352,8.125851946158395,-0.5301845968990031
1743278392483789824,-1.70980167388916,3.03396582603455,-0.896980047225952,-0.6624948656178407,8.320481532773698,-0.1835010201529903
1743278392488790016,-1.42430198192596,2.90186905860901,-0.804299235343933,-0.5669736034792329,8.764744677375711,0.11327951994295743
1743278392493789952,-1.15478193759918,2.76764154434204,-0.682855367660522,-0.47573969584662035,9.233078682842457,0.4052280101489065
1743278392498790144,-0.923612415790558,2.63128352165222,-0.531583189964294,-0.38450143773441064,9.701435020768574,0.6971904218888888
1743278392503799808,-0.755295515060425,2.48959898948669,-0.376049816608429,-0.33993444710638837,9.95049382158074,0.6245071749855811
1743278392508800000,-0.627459943294525,2.35963273048401,-0.208798199892044,-0.30954153146761054,10.132851239627689,0.4421495958939797
1743278392513799936,-0.534779071807861,2.28186583518982,-0.0426118783652782,-0.27915006504281514,10.31519996239436,0.25980071209033784
1743278392518800128,-0.490036576986313,2.27227830886841,0.0980073139071465,-0.36640087213471983,10.30406852865884,0.16466216366802158
1743278392523799808,-0.495363086462021,2.32767391204834,0.210928797721863,-0.5245396295663467,10.17634123807306,0.12208634208091503
1743278392528809984,-0.586978614330292,2.55351686477661,0.223712354898453,-0.6830026427115572,10.048352048984817,0.07942322087394077
1743278392533809920,-0.774470865726471,2.84647345542908,0.112921476364136,-0.8000978696226054,10.24896457840189,0.1804960338128605
1743278392538810112,-0.942787766456604,2.98922324180603,0.0479383654892445,-0.8730873691038574,10.802468109015138,0.4359592547444008
1743278392543809792,-1.04825210571289,3.02331256866455,0.0862890481948853,-0.9460733882542167,11.355945247127403,0.6914102945191163
1743278392548809984,-1.19526314735413,2.99774575233459,0.218385860323906,-0.996448739248289,11.527207239969007,0.7475393994426642
1743278392553819904,-1.42962849140167,3.0360963344574,0.312132000923157,-1.0025392982440662,10.94860417333763,0.4125585122966967
1743278392558820096,-1.65760207176208,3.12132024765015,0.369658052921295,-1.0086179735050682,10.371130061435796,0.07823123084115824
1743278392563819776,-1.82698428630829,3.22571921348572,0.379245728254318,-1.02885531816136,9.89153959970477,-0.1298774683813954
1743278392568819968,-1.93351399898529,3.27472281455994,0.34835210442543,-1.1079285099497165,9.818548879462284,0.18641515658113458
1743278392573820160,-1.93884038925171,3.29815936088562,0.281238406896591,-1.187001701738073,9.745558159219797,0.5027077815436646
1743278392578830080,-1.90581631660461,3.33437943458557,0.205602318048477,-1.2785593208251265,9.673059658682089,0.8101214706885996
1743278392583830016,-1.88664078712463,3.35781598091125,0.152337461709976,-1.5946457192541366,9.612273751618812,0.9438503563385127
1743278392588829952,-1.89516317844391,3.25767803192139,0.162990435957909,-1.910717045854116,9.551490742987113,1.077572865444193
1743278392593830144,-1.94949340820312,3.0701858997345,0.20027582347393,-2.226803444283126,9.490704835923836,1.211301751094106
1743278392598830080,-2.09117794036865,2.88482427597046,0.213059395551682,-2.669805606799287,9.286610123298798,1.2844866050270753
1743278392603840000,-2.31169438362122,2.72929072380066,0.184296369552612,-3.126910526570877,9.06719973749259,1.351528658913747
1743278392608839936,-2.57695317268372,2.57056164741516,0.149141564965248,-3.5830800931707643,8.848238321258558,1.4184335276706421
1743278392613840128,-2.83049392700195,2.38200402259827,0.135292708873749,-3.4863899520794415,8.726902817878301,1.6339211354072898
1743278392618840064,-3.03290057182312,2.15083456039429,0.148076266050339,-3.2189448959770286,8.635728456494968,1.8952878224426368
1743278392623840000,-3.15434408187866,1.91114270687103,0.189622864127159,-2.951487086784343,8.544549747471494,2.156666972721846
1743278392628849920,-3.18310737609863,1.67038559913635,0.254605978727341,-2.4118866168700874,8.63039260249477,2.4676857636616893
1743278392633850112,-3.12664651870728,1.45306503772736,0.336633861064911,-1.7063108173316197,8.825034118687288,2.808308568668892
1743278392638850048,-2.92850136756897,1.24639749526978,0.464469462633133,-1.0007686614990234,9.019666353861489,3.1489151318868034
1743278392643849984,-2.66217708587646,1.05677449703217,0.625329315662384,-0.4690218563118829,9.220034521914009,3.1219575370086425
1743278392648849920,-2.40437531471252,0.903371810913086,0.775536119937897,-0.12863725237167245,9.426696569384724,2.6903985622123354
1743278392653860096,-2.22647047042847,0.837323427200317,0.871412873268127,0.21244529339150442,9.633782367179279,2.2579546970476025
1743278392658860032,-2.12846326828003,0.854368150234222,0.925743043422699,0.3651177517903182,9.73549062778233,2.0605297665667317
1743278392663859968,-2.26162528991699,0.827735722064972,1.05890512466431,0.1400633849399982,9.626004699088892,2.334244550382753
1743278392668859904,-2.45444416999817,0.709487736225128,1.31564176082611,-0.08498025072746601,9.516523990971876,2.607946282759531
1743278392673860096,-2.64513230323792,0.622133433818817,1.57663941383362,-0.3042933386068995,9.226478035115786,2.818770552702029
1743278392678870016,-2.86138772964478,0.625329315662384,1.66825497150421,-0.49919131189870225,8.15453919624869,2.7578648868092204
1743278392683869952,-3.08723068237305,0.730793714523315,1.49780750274658,-0.6937090055110224,7.084691895590968,2.697078058412324
1743278392688869888,-3.31733465194702,0.935330748558044,1.15052080154419,-0.9029459983320608,6.048863645698086,2.663865093755662
1743278392693870080,-3.55702662467957,1.18993675708771,0.808560431003571,-1.432119879050389,5.750823154725725,3.229533610463621
1743278392698870016,-3.74025774002075,1.41791021823883,0.528387248516083,-1.9612685273692936,5.452796875106166,3.795175154612134
1743278392703880192,-3.8095018863678,1.57663941383362,0.312132000923157,-2.491502168863426,5.154159507316104,4.361976518816839
1743278392708879872,-3.7082986831665,1.64268779754639,0.175773993134499,-2.373281146504629,5.371836236238689,4.900194694033509
1743278392713880064,-3.42173385620117,1.62564325332642,0.0596566312015057,-2.1847220639404052,5.645551057972283,5.435459166903522
1743278392718880000,-2.95939493179321,1.52657055854797,-0.0266324244439602,-1.996171972368102,5.919252828264826,5.970698116958692
1743278392723879936,-2.42355060577393,1.35931897163391,-0.0490036569535732,-1.461822458231246,6.815391108390729,5.971130555544064
1743278392728879872,-1.88344502449036,1.13986766338348,0.051134254783392,-0.8171126421505659,7.910181281900553,5.800829932662
1743278392733890048,-1.40193068981171,0.889522969722748,0.270585417747498,-0.1710808804263082,9.007216268602924,5.630180116761772
1743278392738889984,-1.07488465309143,0.679659485816956,0.589109182357788,0.3273564611082899,9.32278381386164,5.227801246810451
1743278392743889920,-0.928938925266266,0.556084990501404,0.948114335536957,0.7346278812209592,9.152580754979821,4.680720170172717
1743278392748889856,-0.982203781604767,0.529452562332153,1.26876866817474,1.1418798815634532,8.98238581182654,4.133665179796505
1743278392753900032,-1.18780601024628,0.596566259860992,1.51591753959656,1.3204078679830789,8.429951240212377,3.926974899228064
1743278392758899968,-1.49141573905945,0.714814245700836,1.65227556228638,1.2413397216449784,7.450722165743052,4.103357800958625
1743278392763900160,-1.82165765762329,0.86715167760849,1.67358160018921,1.1622678049503696,6.471446396835004,4.279749113489896
1743278392768899840,-2.09970021247864,1.00564026832581,1.58516180515289,0.9177494563213866,5.616018306562885,4.59365236157863
1743278392773900032,-2.29678010940552,1.14306366443634,1.38595139980316,0.3341963470643484,5.014229342043293,5.189362764517521
1743278392778899968,-2.40224456787109,1.26131153106689,1.08447229862213,-0.24932893684893354,4.412469072400896,5.785044762420988
1743278392783910144,-2.38519978523254,1.36890661716461,0.706291913986206,-0.8038986464813065,4.054514409326536,6.383135588875836
1743278392788909824,-2.20090341567993,1.43495500087738,0.330242067575455,-1.2235682850322638,4.784374524999754,6.9852703511330745
1743278392793910016,-1.86640024185181,1.42430198192596,0.0276977196335793,-1.64325793548721,5.5142694439782804,7.5874338261251495
1743278392798909952,-1.45945680141449,1.33375179767609,-0.180035188794136,-2.037413482422014,6.258442070652709,8.15846344261614
1743278392803910144,-1.0972558259964,1.21976506710052,-0.281238406896591,-1.8185810214521743,7.346525510773742,7.982181670579883
1743278392808919808,-0.839453995227814,1.12814950942993,-0.282303690910339,-1.5993207457341103,8.436736140530716,7.805555269864745
1743278392813920000,-0.667941153049469,1.07275402545929,-0.180035188794136,-1.3804882847642705,9.524819580651748,7.629273497828487
1743278392818919936,-0.553954422473907,1.02375030517578,0.0447424724698067,-1.166991114075802,9.93225931379992,7.452899522978373
1743278392823920128,-0.545432031154633,0.954506099224091,0.34835210442543,-0.9541018609462997,10.260716796539647,7.2765054593410365
1743278392828919808,-0.647700548171997,0.896980047225952,0.705226540565491,-0.7412227589351044,10.589158617564577,7.100119806635593
1743278392833929984,-0.862890541553497,0.912959456443787,1.04825210571289,-0.8488418089753919,10.019788676817127,7.115957386552186
1743278392838929920,-1.13560652732849,0.943853139877319,1.3103152513504,-1.0615821686765932,9.156670803006628,7.194975388711919
1743278392843930112,-1.41045308113098,0.99605268239975,1.46584856510162,-1.2743326728801883,8.293511771508188,7.273997158837042
1743278392848929792,-1.59688007831573,1.02375030517578,1.50100338459015,-1.4907705792516937,7.685379032006302,7.47496911723989
1743278392853929984,-1.67571210861206,1.01948916912079,1.42962849140167,-1.7096030402215332,7.2416355484859185,7.754588406606629
1743278392858939904,-1.65760207176208,0.941722512245178,1.2719646692276,-1.9288633159395974,6.7970245519565555,8.034754348217506
1743278392863940096,-1.61499011516571,0.819213330745697,1.07062339782715,-2.0574466259365414,6.621267561631577,8.181808119528194
1743278392868940032,-1.58622717857361,0.69563889503479,0.857564032077789,-2.0817764464579613,6.7550816503333735,8.175725626480844
1743278392873939968,-1.57770478725433,0.56673800945282,0.651961743831635,-2.1061051068696863,6.888889358428232,8.169643423462727
1743278392878940160,-1.59581482410431,0.42931467294693,0.492167174816132,-2.0487331442450922,7.012951002419324,8.15578143351206
1743278392883950080,-1.62564325332642,0.263128340244293,0.384572207927704,-1.8172917885029838,7.116490543315061,8.125328448695589
1743278392888950016,-1.66932034492493,0.0969420149922371,0.327046155929565,-1.5863020149045686,7.219828060645543,8.0949348829234
1743278392893949952,-1.75880527496338,-0.0575260370969772,0.288695484399796,-1.323183222072888,7.307114571390334,8.126627997704066
1743278392898950144,-1.90368556976318,-0.17364339530468,0.298283129930496,-0.9095760599256689,7.319279405817048,8.448998309197847
1743278392903950080,-2.03791308403015,-0.259932458400726,0.374984532594681,-0.4959886196534329,7.331443660192532,8.771353249229131
1743278392908960000,-2.09650421142578,-0.353678584098816,0.521995544433594,-0.09644148012683498,7.319659913245355,9.084855935422384
1743278392913959936,-2.09437370300293,-0.472991853952408,0.698834776878357,-0.1207550312549949,6.626723748720877,9.127404595427448
1743278392918960128,-2.07626366615295,-0.577390968799591,0.839453995227814,-0.14506974177236504,5.933754541605942,9.169955284361034
1743278392923960064,-2.07519841194153,-0.613611042499542,0.918285965919495,-0.16938329290052495,5.240818377081466,9.212503944366098
1743278392928960000,-2.05602312088013,-0.6018927693367,0.931069552898407,-0.366552232803505,4.5204507087444075,9.427919375725418
1743278392933969920,-1.99317061901093,-0.568868577480316,0.866086423397064,-0.5859521157203588,3.795212087232887,9.665602750411102
1743278392938970112,-1.85787785053253,-0.543301463127136,0.716944873332977,-0.8049239114911796,3.0713885317986507,9.902822363693744
1743278392943970048,-1.63096964359283,-0.526256680488586,0.495363086462021,-0.8650565632338135,3.1860910013100665,10.085188938111756
1743278392948969984,-1.34440469741821,-0.502820134162903,0.24075710773468,-0.8711197264214853,3.586258751187737,10.248893644941488
1743278392954010112,-1.03866446018219,-0.509211957454681,-0.00106529693584889,-0.8772311705672126,3.9896130361707653,10.413901932070695
1743278392959009792,-0.762752652168274,-0.531583189964294,-0.157663941383362,-0.6424596602315302,4.416074234574275,10.373559030912462
1743278392964019968,-0.512407839298248,-0.581652164459229,-0.223712354898453,-0.24630211312093853,4.860989620923728,10.196811708135657
1743278392969019904,-0.316393196582794,-0.663679957389832,-0.209863498806953,0.1490447946765402,5.304994596993701,10.020426055430203
1743278392974020096,-0.220516458153725,-0.767013847827911,-0.155533358454704,0.32157660437739044,5.4871967815985725,9.902547273402275
1743278392979020032,-0.24075710773468,-0.84051924943924,-0.0809625685214996,0.23039643993725206,5.359544411650339,9.853918174461725
1743278392984019968,-0.369658052921295,-0.875674068927765,0.00745707890018821,0.13922062320665216,5.231898128502122,9.805291394284236
1743278392989029888,-0.56673800945282,-0.88526177406311,0.10759499669075,0.026836250214930413,4.9091685563517995,9.89788512325887
1743278392994030080,-0.757426142692566,-0.866086423397064,0.203471720218658,-0.13130766137809513,4.161026385733202,10.299327237696273
1743278392999030016,-0.84051924943924,-0.845845818519592,0.262063026428223,-0.2894515729711207,3.4128842151146053,10.700769352133678
1743278393004029952,-0.787254452705383,-0.84051924943924,0.245018288493156,-0.4403380960902724,2.811586131102915,11.032918447665905
1743278393009030144,-0.616806924343109,-0.84051924943924,0.153402760624886,-0.5558329734161206,2.9270809989554034,11.02683973451146
1743278393014040064,-0.360070377588272,-0.837323427200317,0.0287630185484886,-0.6715536417952951,3.0428016578426984,11.02074913754816
1743278393019040000,-0.101203210651875,-0.841584622859955,-0.110790878534317,-0.7851501284497548,3.1595652352310877,11.008652838972164
1743278393024039936,0.0958767309784889,-0.839453995227814,-0.2151899933815,-0.8277253031278655,3.3237837309254092,10.77144843787304
1743278393029040128,0.185361668467522,-0.835192799568176,-0.270585417747498,-0.8703025079988461,3.488010057361979,10.534232725706199
1743278393034040064,0.20027582347393,-0.831996917724609,-0.303609609603882,-0.9128776826769568,3.6522285530563012,10.297028324607073
1743278393039049984,0.168316930532455,-0.829866290092468,-0.344090908765793,-0.9017716934002428,3.7468863065558016,10.30667169818662
1743278393044049920,0.157663941383362,-0.856498777866364,-0.381376326084137,-0.883524902394779,3.832037985276044,10.349247461715233
1743278393049050112,0.164055734872818,-0.912959456443787,-0.408008724451065,-0.8652772412929438,3.917193724445417,10.391825255464797
1743278393054050048,0.185361668467522,-0.985399723052979,-0.438902318477631,-0.6176375748680623,4.186725303027718,10.326426795944935
1743278393059049984,0.204537019133568,-1.04292571544647,-0.44209823012352,-0.28939394860764545,4.521047564518573,10.223090844880229
1743278393064059904,0.248214185237885,-1.11643123626709,-0.426118791103363,0.03949138987271594,4.856023421885888,10.119552873312298
1743278393069060096,0.280173093080521,-1.20272028446198,-0.383506923913956,0.342486861233389,5.038220922177515,9.969050243690827
1743278393074060032,0.291891366243362,-1.291139960289,-0.337699145078659,0.6283531225269681,5.11729015396974,9.786582295720418
1743278393079059968,0.260997772216797,-1.35612308979034,-0.288695484399796,0.9142330153241138,5.196363156170234,9.604105646784488
1743278393084059904,0.205602318048477,-1.39447379112244,-0.274846613407135,1.1230880401380818,5.085834843398036,9.440922553385768
1743278393089070080,0.144880384206772,-1.44560790061951,-0.268454819917679,1.2388142061237866,4.744747308191854,9.300833067966837
1743278393094070016,0.0607219263911247,-1.48715460300446,-0.258867174386978,1.3543035668778654,4.40435772501831,9.16103024134076
1743278393099069952,-0.0436771735548973,-1.508460521698,-0.279107809066772,1.3817623894001465,4.054518741374219,9.09988423302129
1743278393104069888,-0.116117365658283,-1.53615820407867,-0.319589078426361,1.2114616717301097,3.683506404689112,9.215445483722545
1743278393109070080,-0.127835631370544,-1.55959463119507,-0.367527455091476,1.0411528332876885,3.312476376318502,9.331012244950273
1743278393114080000,-0.0639178156852722,-1.60327184200287,-0.413335204124451,0.8402598564370394,2.947821991585218,9.393318208243697
1743278393119080192,0.0394159853458405,-1.64694905281067,-0.463404178619385,0.4876965255150957,2.619573413810759,9.18664317358273
1743278393124079872,0.126770332455635,-1.6874303817749,-0.50708132982254,0.1351500057380557,2.2913404877899604,8.979977993729824
1743278393129080064,0.171512797474861,-1.70554041862488,-0.555019736289978,-0.21900126599145492,1.9605297785292735,8.77476212050326
1743278393134080000,0.191753461956978,-1.70127928256989,-0.627459943294525,-0.6508351826148895,1.504367187275919,8.640954260747643
1743278393139090176,0.22797355055809,-1.70980167388916,-0.725467264652252,-1.0835545533613897,1.0472692571534647,8.506872034582724
1743278393144089856,0.310001403093338,-1.72365045547485,-0.86715167760849,-1.5153884699848241,0.5911066659001103,8.373064174827109
1743278393149090048,0.443163514137268,-1.75347876548767,-1.05251336097717,-1.333257092521402,1.127845559550609,8.228649364979725
1743278393154089984,0.661549389362335,-1.79502534866333,-1.24426686763763,-1.0658080016929221,1.8025466625627165,8.082768266614718
1743278393159089920,0.974746704101562,-1.87598788738251,-1.38808190822601,-0.7983461575817743,2.4772799386282323,7.936880211924388
1743278393164099840,1.30392348766327,-2.00701951980591,-1.44880378246307,-0.16415903579296565,3.528649270924137,7.580813627321873
1743278393169100032,1.57770478725433,-2.16255283355713,-1.42004072666168,0.6022306708431836,4.714728438430246,7.148959047647716
1743278393174099968,1.74815237522125,-2.27653956413269,-1.30605399608612,1.3685838340067673,5.900751050568839,6.7171250599332994
1743278393179100160,1.84296369552612,-2.39159154891968,-1.08660292625427,1.7653581653444914,6.458842020095246,6.403689241801278
1743278393184099840,1.83124554157257,-2.49279499053955,-0.825605094432831,1.905250160207479,6.58048731874218,6.172563235037328
1743278393189110016,1.70873630046844,-2.5439293384552,-0.567803263664246,2.0454289966983863,6.702382045067423,5.940963315808982
1743278393194109952,1.47650146484375,-2.52581882476807,-0.341960310935974,2.038234115042609,6.385576840267464,5.884181673652486
1743278393199110144,1.21656918525696,-2.45444416999817,-0.169382214546204,1.8497979244036054,5.528496278218194,6.04222506233129
1743278393204109824,0.974746704101562,-2.35750198364258,-0.0841584652662277,1.661370718896713,4.671456584019488,6.2002609150865435
1743278393209110016,0.795776844024658,-2.24777674674988,-0.0980073139071465,1.4233045724139777,3.885841331758343,6.328947038144561
1743278393214119936,0.706291913986206,-2.13378977775574,-0.197079926729202,1.0698269671764518,3.264208281879471,6.38989150098534
1743278393219120128,0.722271323204041,-2.03791308403015,-0.383506923913956,0.7170390579278253,2.643788145675231,6.450717050630646
1743278393224119808,0.831996917724609,-1.9580157995224,-0.609349846839905,0.335130757400505,2.134318679083302,6.439573083123942
1743278393229120000,0.981138527393341,-1.88664078712463,-0.883131206035614,-0.1997929592418657,2.207262782215336,6.050537563272283
1743278393234119936,1.15052080154419,-1.82698428630829,-1.17608785629272,-0.7346911693175454,2.2802034071810944,5.661520593655216
1743278393239130112,1.32096827030182,-1.76626241207123,-1.48821985721588,-1.2676705623944016,2.362064754153849,5.271019946730617
1743278393244129792,1.46797919273376,-1.72791159152985,-1.80035185813904,-1.614354087007028,2.9824458979743085,4.839186110676959
1743278393249129984,1.60753297805786,-1.71299755573273,-2.10715746879578,-1.961054143188231,3.602856624606452,4.407331682670793
1743278393254129920,1.7406952381134,-1.72258520126343,-2.38626503944397,-2.3077376678008577,4.2232377684269125,3.9754978466171345
1743278393259130112,1.87279200553894,-1.77158880233765,-2.59932470321655,-2.0924034880170876,5.606575491703883,3.7611953213429663
1743278393264130048,2.04856586456299,-1.86426961421967,-2.70052766799927,-1.7945482865476416,7.1019304395661536,3.5788349877260095
1743278393269139968,2.24990725517273,-2.04537010192871,-2.62489175796509,-1.4961107818519777,8.600208787812857,3.3961181419176403
1743278393274139904,2.39159154891968,-2.30530261993408,-2.33726143836975,-1.0830108021975031,9.6755232970872,3.0498534155712758
1743278393279140096,2.37667751312256,-2.56843090057373,-1.84402906894684,-0.6268264369566621,10.593974287189717,2.642328656418539
1743278393284140032,2.18918514251709,-2.794273853302,-1.16223895549774,-0.17064207171582102,11.512425277292234,2.2348038972658024
1743278393289139968,1.87705314159393,-2.97324395179749,-0.343025594949722,0.09371541884406875,11.265777782157606,2.0759365188018495
1743278393294150144,1.49035048484802,-3.10001397132874,0.561411440372467,0.22170478543323419,10.187010457207844,2.094220742948041
1743278393299150080,1.06742751598358,-3.16606259346008,1.45945680141449,0.34943225315672277,9.110450565158663,2.112467552911388
1743278393304150016,0.699900090694427,-3.19376015663147,2.29251909255981,0.6223469429831693,7.684334204883422,2.2678314260367243
1743278393309149952,0.451685905456543,-3.18630313873291,2.97111296653748,1.0785095247577268,5.817108494573542,2.5962684932557463
1743278393314150144,0.428249388933182,-3.17565011978149,3.42706036567688,1.5346938585985557,3.9497937457957644,2.9247212219628818
1743278393319160064,0.634916961193085,-3.13943028450012,3.60709547996521,2.0226833068184016,2.593383693270096,3.0477073015994107
1743278393324160000,1.01735854148865,-3.07977342605591,3.49843525886536,2.5819217339781417,2.441416773851587,2.689065271733069
1743278393329159936,1.46371793746948,-2.9679172039032,3.13836479187012,3.1411334951819807,2.2894571006146256,2.3304403428599496
1743278393334160128,1.86853086948395,-2.78788208961487,2.59932470321655,3.5421070410129345,2.333267130408996,2.0176664873969883
1743278393339160064,2.19664216041565,-2.53114557266235,1.97932171821594,3.073773035546192,3.4524029376498326,1.9568438759892843
1743278393344169984,2.46616244316101,-2.25097250938416,1.33375179767609,2.604478734326501,4.573833477603051,1.8958965508201702
1743278393349169920,2.6920051574707,-1.97079944610596,0.702030718326569,2.141626426941152,5.693252683442917,1.8357317801313386
1743278393354170112,2.87204051017761,-1.72791159152985,0.140619203448296,2.1294691848999197,6.836026917746718,1.8296532348964427
1743278393359170048,3.01372504234314,-1.53296220302582,-0.346221506595612,2.117312522547894,7.978746661575872,1.8235749795025367
1743278393364169984,3.15434408187866,-1.44454264640808,-0.738250732421875,2.105155280506662,9.121520895879673,1.8174964342676407
1743278393369179904,3.31946516036987,-1.47863221168518,-1.00350975990295,2.7159427976385535,10.15102816831462,1.378487457634853
1743278393374180096,3.45582318305969,-1.64055728912354,-1.11643123626709,3.4215186730121667,11.160731564409328,0.8736357548477977
1743278393379180032,3.50589227676392,-1.89196741580963,-1.07594990730286,4.127060904676293,12.170386815196194,0.3688081247148902
1743278393384179968,3.40149331092834,-2.16361808776855,-0.916155397891998,4.783893109386973,12.501863642995112,-0.10059753530275103
1743278393389179904,3.11492824554443,-2.40970158576965,-0.678594172000885,5.422114245327156,12.574803313978826,-0.5564697542846191
1743278393394190080,2.65578508377075,-2.58334517478943,-0.403747528791428,6.0616440221926835,12.6478925441563,-1.0132767167415822
1743278393399190016,2.10609221458435,-2.69307088851929,-0.147010982036591,6.7177447855127275,12.212876836643222,-1.1976916254892027
1743278393404189952,1.53189694881439,-2.74420475959778,0.0756360813975334,7.386825224929954,11.409980127338223,-1.1855264928095965
1743278393409189888,0.998183250427246,-2.72716021537781,0.220516458153725,8.055873760835858,10.607121702255487,-1.1733619401954436
1743278393414190080,0.536909639835358,-2.66750359535217,0.276977211236954,8.478312692232164,9.894398701275033,-1.0683764906064068
1743278393419200000,0.192818760871887,-2.56416988372803,0.221581757068634,8.58191661655365,9.29715238840051,-0.8428855937014674
1743278393424199936,-0.0330242030322552,-2.41396307945251,0.082027867436409,8.685318391686675,8.701071406455785,-0.6178346685651049
1743278393429199872,-0.134227409958839,-2.22540521621704,-0.125705033540726,8.584878365328946,8.223027349331977,-0.45001096851409755
1743278393434200064,-0.119313262403011,-2.00488877296448,-0.374984532594681,7.994871079782504,8.028385833139454,-0.4195982126502301
1743278393439200000,-0.0276977196335793,-1.75774002075195,-0.655157625675201,7.404891927331882,7.83375359796525,-0.38918690694637903
1743278393444210176,0.0798972696065903,-1.49993813037872,-0.945983707904816,6.76145165564648,7.608400554632756,-0.37347490632979563
1743278393449209856,0.118247963488102,-1.23041796684265,-1.23148322105408,5.827757312506653,7.214308820783831,-0.44016736886005836
1743278393454260224,0.0948114320635796,-0.971550822257996,-1.52017867565155,4.884668591111019,6.816251927627189,-0.5075308585036626
1743278393459259904,0.0458077676594257,-0.748903751373291,-1.79289472103119,3.955824677623328,6.428238904047768,-0.5716439117254527
1743278393464260096,0.0564607381820679,-0.622133433818817,-2.05282711982727,3.627581112938809,6.79295404328454,-0.3163432924713173
1743278393469260032,0.155533358454704,-0.590174555778503,-2.29038834571838,3.299353199768914,7.157651791946296,-0.06105484662073213
1743278393474259968,0.373919248580933,-0.672202348709106,-2.44805240631104,2.971109635084395,7.522366931183067,0.19424577263340315
1743278393479269888,0.654092311859131,-0.870347619056702,-2.48320722579956,3.4618331806513716,8.240091612750746,-0.2592476757208977
1743278393484270080,0.90230655670166,-1.14732480049133,-2.34578394889832,4.082253241020467,9.01257554723312,-0.8249248428387224
1743278393489270016,0.997117936611176,-1.41577959060669,-2.02406430244446,4.702643718132822,9.78502264765415,-1.3905750369846266
1743278393494270208,0.912959456443787,-1.60327184200287,-1.55852937698364,5.209192291585783,9.497679334255638,-1.6540663483615272
1743278393499269888,0.743577301502228,-1.71832394599915,-1.07275402545929,5.671437142730043,8.7982299303515,-1.8000384245774372
1743278393504280064,0.537974953651428,-1.74815237522125,-0.630655765533447,6.13462980411698,8.097346339981868,-1.9463098093278606
1743278393509280000,0.336633861064911,-1.67997324466705,-0.282303690910339,6.312136166490643,7.398148167230175,-1.7830643324479372
1743278393514280192,0.222647055983543,-1.55000698566437,-0.0351548008620739,6.2817427522921925,6.699100095387064,-1.394028888383144
1743278393519279872,0.265258938074112,-1.40299618244171,0.100137911736965,6.2513507873314955,6.0000853559906355,-1.0050119945493285
1743278393524280064,0.464469462633133,-1.23894035816193,0.125705033540726,6.047640249398715,5.7579642824365145,-0.7761635883433812
1743278393529289984,0.756360828876495,-1.06103575229645,0.0788319706916809,5.615210294925878,6.117307528960022,-0.7578918923722898
1743278393534290176,1.05464398860931,-0.852237582206726,-0.0149141578003764,5.183624086140632,6.475949634613236,-0.7396558476425642
1743278393539289856,1.31670701503754,-0.629590511322021,-0.132096812129021,4.652130512523356,6.850404769211589,-0.7476939075799677
1743278393544290048,1.52550530433655,-0.395225167274475,-0.226908251643181,3.8735759525019913,7.264012021411674,-0.8206834070612197
1743278393549289984,1.69382214546204,-0.185361668467522,-0.312132000923157,3.0950585160053277,7.677599551732483,-0.893669426211579
1743278393554300160,1.82059240341187,-0.00639178184792399,-0.39948633313179,2.3664911152254895,8.053834536414698,-0.9712360403050475
1743278393559299840,1.9047509431839,0.128900930285454,-0.495363086462021,1.9410038710171706,8.20579420965166,-1.0745686491773137
1743278393564300032,1.9867787361145,0.20134112238884,-0.591239809989929,1.5154963374929291,8.35776112907017,-1.1779061854545139
1743278393569299968,2.12313675880432,0.193884029984474,-0.698834776878357,1.09000909328461,8.50972080230713,-1.28123879432678
1743278393574300160,2.31915140151978,0.0756360813975334,-0.819213330745697,0.9501125684109579,9.081471812062444,-1.7070108051195891
1743278393579309824,2.48320722579956,-0.123574443161488,-0.930004239082336,0.8099425475655426,9.654340587953559,-2.1336151949149973
1743278393584310016,2.53327608108521,-0.360070377588272,-1.01096677780151,0.6700460226918906,10.226091597708873,-2.559387205707807
1743278393589309952,2.45124840736389,-0.594435691833496,-1.05144810676575,0.785863064712,10.531677015406233,-2.776402686512763
1743278393594310144,2.25949478149414,-0.808560431003571,-1.02375030517578,0.944009391412354,10.793226666542658,-2.958879183778398
1743278393599309824,1.98358297348022,-1.00777089595795,-0.951310157775879,1.1021481772808035,11.054763846305292,-3.1413469800857423
1743278393604320000,1.68316924571991,-1.19206726551056,-0.870347619056702,1.3127647868511185,11.038169142573958,-3.0629668906908143
1743278393609319936,1.37849426269531,-1.36038422584534,-0.784058511257172,1.5437400453527244,10.910524794134554,-2.880618016359935
1743278393614320128,1.09192943572998,-1.48289334774017,-0.709487736225128,1.7747263178860169,10.782874358987392,-2.698260446741547
1743278393619319808,0.876739382743835,-1.57663941383362,-0.665810585021973,1.887917857132935,10.741851516346678,-2.5297108342679593
1743278393624320000,0.683920621871948,-1.62990438938141,-0.61893755197525,1.9122480466569987,10.76618185754103,-2.3715646023615364
1743278393629329920,0.520930230617523,-1.62351250648499,-0.562476813793182,1.9366258013999489,10.79055976425078,-2.213109196532352
1743278393634330112,0.397355765104294,-1.58516180515289,-0.506016075611115,1.8438078910864943,10.822699724835122,-2.0705836756646887
1743278393639329792,0.316393196582794,-1.50419926643372,-0.443163514137268,1.5944389702055726,10.865274842640437,-1.9489402977756933
1743278393644329984,0.307870805263519,-1.40406143665314,-0.379245728254318,1.345058158193046,10.907851990635912,-1.8272911193346077
1743278393649329920,0.396290451288223,-1.30179286003113,-0.315327882766724,1.2701293500227586,10.686174850965477,-1.432759057668402
1743278393654340096,0.537974953651428,-1.21443843841553,-0.289760768413544,1.635813263043925,9.796344078266575,-0.3478968520270398
1743278393659340032,0.659418821334839,-1.14412891864777,-0.294021964073181,2.000748893574375,8.908334126126636,0.7347454490343959
1743278393664339968,0.777666747570038,-1.10577821731567,-0.351547986268997,2.361383352186511,8.466822563254935,1.2154299083505105
1743278393669339904,1.81633126735687,-1.34973120689392,-0.671137094497681,2.695907695970993,10.72334106353149,-1.9412630966801239
1743278393674340096,3.83293843269348,-2.05921912193298,-1.67145085334778,3.030447991514751,12.979967165663004,-5.098106628295329
1743278393679350016,4.74909353256226,-2.44379115104675,-2.58654093742371,3.36564230918884,15.2410049438477,-8.26112174987793
1743278393684349952,4.31658315658569,-2.49812126159668,-2.7410089969635,2.9583770501649194,16.122400141550855,-8.309750414899975
1743278393689349888,3.10640597343445,-2.44805240631104,-2.25097250938416,2.5511312106173967,17.0037533120178,-8.358376761179647
1743278393694350080,1.51591753959656,-2.38626503944397,-1.4988728761673,2.143865951593476,17.885148509720956,-8.407005426201692
1743278393699350016,-0.272716015577316,-2.27867007255554,-0.749969065189362,2.6557955321411666,15.494516528632303,-6.803819021370254
1743278393704359936,-1.98464822769165,-2.13165926933289,-0.0585913322865963,3.3261841674893446,12.538712056422892,-4.9145421929740865
1743278393709359872,-3.11279773712158,-2.0741331577301,0.460208296775818,3.995232855058308,9.588815535854499,-3.0290415805771866
1743278393714360064,-3.48991274833679,-2.2286012172699,0.691377699375153,4.270160800240535,8.423256606268751,-1.9882732665912624
1743278393719360000,-3.36633849143982,-2.45337891578674,0.756360828876495,4.38565384177503,7.979519848478296,-1.2892358753368496
1743278393724359936,-2.87949776649475,-2.64726281166077,0.775536119937897,4.5011413762981975,7.5358042492210195,-0.5902318160198416
1743278393729370112,-2.23179697990417,-2.7750985622406,0.812821626663208,4.216144712902694,7.091014460494435,-0.25920563574541283
1743278393734370048,-1.62883901596069,-2.84540820121765,0.912959456443787,3.626165484620543,6.6470094844244665,-0.21054755325450947
1743278393739369984,-1.07594990730286,-2.794273853302,1.02907681465149,3.036158123238956,6.202983336022416,-0.16188715050789623
1743278393744369920,-0.576325654983521,-2.67922186851501,1.06636226177216,2.6112338798080605,6.388238892309716,-0.17512358150313495
1743278393749370112,-0.0948114320635796,-2.58654093742371,0.972616136074066,2.410512746755369,7.428339136687317,-0.27244290624543
1743278393754380032,0.360070377588272,-2.46403169631958,0.738250732421875,2.2093992063759953,8.47047276414805,-0.3699524890610816
1743278393759380224,-1.68529975414276,-1.83976793289185,-0.0905502364039421,2.1458458360345527,9.239553982523178,-0.39697431947478545
1743278393764379904,-1.62990438938141,-1.64694905281067,-0.220516458153725,2.4315301399419136,9.318573182360888,-0.24501461189853876
1743278393769380096,-0.779797315597534,-1.75880527496338,-0.221581757068634,2.7172280666762214,9.397596150221098,-0.09304765813910693
1743278393774380032,0.0181100480258465,-1.74602162837982,-0.190688163042068,3.031888090888341,9.427819064096902,0.04072744839412534
1743278393779390208,-0.436771720647812,-1.51591753959656,-0.463404178619385,3.5316559977023276,9.14746131512807,0.05901164285788657
1743278393784389888,-0.940657198429108,-1.15904307365417,-0.654092311859131,4.030401251999277,8.867677249570564,0.07725842319954149
1743278393789390080,-0.236495926976204,-1.21656918525696,-0.629590511322021,4.529170288912902,8.587879842538378,0.09550607363705935
1743278393794390016,-0.314262598752975,-0.90230655670166,-0.773405611515045,4.725489129930087,8.864147279222681,-0.47233935808844346
1743278393799389952,-0.327046155929565,-0.570999205112457,-0.844780445098877,4.920003790018265,9.1437623304566,-1.0437264515573075
1743278393804399872,-0.178969889879227,-0.364331543445587,-0.90230655670166,5.1148987238554255,9.423924025649157,-1.6162305997101416
1743278393809400064,-0.117182664573193,-0.170447513461113,-0.937461316585541,4.611556568162242,10.008730503043735,-1.603712042465648
1743278393814400000,-0.157663941383362,0.012783563695848,-0.879935264587402,3.9850838716164585,10.64736786595095,-1.488149114915202
1743278393819400192,-0.22797355055809,0.162990435957909,-0.756360828876495,3.358581301783919,11.286035682215797,-1.3725806767583209
1743278393824399872,-0.272716015577316,0.288695484399796,-0.588043928146362,2.6977620648263847,11.5596636598083,-1.2527248004501272
1743278393829410048,-0.362200945615768,0.408008724451065,-0.447424709796906,2.0212571335641627,11.681556537423072,-1.130831979824775
1743278393834409984,-0.359005063772202,0.495363086462021,-0.268454819917679,1.346136503817324,11.803199991142467,-1.0091885829781841
1743278393839410176,-0.363266259431839,0.574195027351379,-0.100137911736965,0.8974890423060276,11.636828097774455,-0.8841537412866268
1743278393844409856,-0.370723336935043,0.642374038696289,0.0745707824826241,0.6239615755366409,11.247811128157382,-0.7565076097049208
1743278393849410048,-0.374984532594681,0.688181817531586,0.281238406896591,0.3504210656378485,10.858775608305717,-0.6288553913304256
1743278393854409984,0.102268509566784,0.536909639835358,0.122509144246578,0.09461916466926155,10.617115744436509,-0.49609130353397735
1743278393859420160,0.154468059539795,0.459142982959747,0.132096812129021,-0.13697713752950738,10.580548002729453,-0.35591459068408093
1743278393864419840,0.319589078426361,0.39948633313179,0.193884029984474,-0.3680995346652446,10.544055087942231,-0.21602471511659355
1743278393869420032,0.385637521743774,0.34835210442543,0.312132000923157,-0.3408373059056464,10.324704283032801,-0.38148198247622644
1743278393874419968,0.570999205112457,0.197079926729202,0.294021964073181,0.3642557620671537,9.625689543636383,-1.3479457392861072
1743278393879420160,0.25354066491127,0.101203210651875,0.36113566160202,1.0693824523311166,8.926641471793282,-2.3144555818218384
1743278393884429824,0.458077698945999,-0.0543301440775394,0.331307351589203,1.6860323382299003,8.234197366583865,-3.1440504972302117
1743278393889430016,0.62639456987381,-0.461273580789566,0.082027867436409,1.7103621587513202,7.5955392366436625,-3.058896049571253
1743278393894429952,0.346221506595612,-0.762752652168274,0.0862890481948853,1.7346908191630455,6.956911559599222,-2.9737456622998426
1743278393899430144,-0.387768059968948,-0.688181817531586,0.276977211236954,1.7590206396844654,6.318253429659018,-2.8885912146408836
1743278393904439808,-0.793646216392517,-0.578456223011017,0.306805521249771,2.2647847202480604,6.190228949846957,-2.8033226768985235
1743278393909440000,-0.298283129930496,-0.611480414867401,-0.26632422208786,2.7753937074263426,6.068655444626899,-2.718221147457614
1743278393914439936,-0.398421049118042,-0.559280872344971,-0.576325654983521,3.2859783474280473,5.9470877363506345,-2.633123675880973
1743278393919440128,-0.521995544433594,-0.415465801954269,-0.749969065189362,2.980624840836449,6.682754159179809,-2.4401715979670264
1743278393924439808,-0.584848046302795,-0.296152532100677,-1.01735854148865,2.524455274236562,7.576846254921647,-2.2272925528294785
1743278393929440000,-0.666875898838043,-0.191753461956978,-1.22189557552338,2.0682639552373336,8.470980985354046,-2.014403356576336
1743278393934449920,-0.680724740028381,-0.100137911736965,-1.34333944320679,1.799224702593149,9.15710249003336,-1.686152791851975
1743278393939450112,-0.707357168197632,-0.0479383654892445,-1.40406143665314,1.610908467120408,9.752425041791565,-1.3095202073002308
1743278393944449792,-0.71268367767334,-0.025567127391696,-1.42962849140167,1.4226012110600015,10.347719207008108,-0.9329055815785716
1743278393949449984,-0.703095972537994,-0.0308936107903719,-1.39021253585815,1.3049118699449498,11.239990982543732,-0.4717642433448007
1743278393954449920,-0.686051189899445,-0.0596566312015057,-1.33162117004395,1.2440892585372458,12.371291531977546,0.057392392487529476
1743278393959470080,-0.647700548171997,-0.105464398860931,-1.25811564922333,1.1830201199267543,13.507177487290996,0.5886938146460124
1743278393964480000,-0.61787223815918,-0.164055734872818,-1.17289197444916,1.1954518884635068,13.846253529912628,0.777329831670334
1743278393969479936,-0.479383617639542,-0.251410067081451,-0.988595545291901,1.31101857385724,13.067698666555277,0.48537184974155906
1743278393974479872,-0.346221506595612,-0.441032916307449,-0.42931467294693,1.4265797487281144,12.28918092673709,0.1934277891355921
1743278393979480064,-0.180035188794136,-0.667941153049469,-0.0703096017241478,1.5140230947663635,11.441140570024226,-0.22260707621591613
1743278393984480000,-0.13316211104393,-0.757426142692566,0.0703096017241478,1.526187609464752,10.407156441503641,-0.9707251063622304
1743278393989489920,-0.0873543471097946,-0.727597832679749,0.118247963488102,1.5383770668998737,9.371052179583296,-1.7203771155890029
1743278393994489856,-0.0926808342337608,-0.646635234355927,0.0777666792273521,1.5631825598540603,8.51967220192492,-2.320680082100905
1743278393999490048,-0.102268509566784,-0.558215618133545,-0.00106529693584889,1.6725987903389832,8.890471582313268,-1.931644675929546
1743278394004489984,-0.118247963488102,-0.483644813299179,-0.0532648488879204,1.7820098035708791,9.261253282014014,-1.5426278199873582
1743278394009489920,-0.125705033540726,-0.441032916307449,-0.0862890481948853,1.8914260340558022,9.632052662402362,-1.1535924138159994
1743278394014499840,-0.123574443161488,-0.409074038267136,-0.0948114320635796,1.8811794022988793,9.518031801851627,-1.0334314579850488
1743278394019500032,-0.119313262403011,-0.3771151304245,-0.101203210651875,1.8690144541211717,9.396382547576547,-0.9178647346743181
1743278394024499968,-0.123574443161488,-0.362200945615768,-0.100137911736965,1.8568500860001198,9.274739093857173,-0.8023035218882542
1743278394029499904,-0.0980073139071465,-0.338764429092407,-0.113986775279045,1.6244654960069973,8.789470073924894,-1.1476599830374385
1743278394034499840,-0.153402760624886,-0.331307351589203,-0.100137911736965,1.350763801545982,8.23598438973791,-1.5795005202405514
1743278394039510016,-0.148076266050339,-0.398421049118042,-0.221581757068634,1.0765008952752377,7.681363810485355,-2.0122265251419016
1743278394044509952,-0.287630200386047,-0.478318303823471,-0.316393196582794,1.134895267140887,6.706381214354756,-2.444062424526881
1743278394049509888,-0.329176753759384,-0.387768059968948,-0.472991853952408,1.335616400193581,5.550714284583419,-2.87591692836704
1743278394054510080,-0.364331543445587,-0.290826082229614,-0.657288193702698,1.536337533246275,4.395047354812082,-3.3077714322071983
1743278394059510016,-0.528387248516083,-0.216255277395248,-0.886327028274536,1.5511006368237246,5.159458819036413,-2.8708938240625033
1743278394064519936,-0.686051189899445,-0.0990726128220558,-1.37103712558746,1.417108262981579,7.461691182530896,-1.7380492730296881
1743278394069519872,-0.852237582206726,0.102268509566784,-1.73430335521698,1.2833773314526455,9.75943149220616,-0.6074150977924444
1743278394074520064,-0.951310157775879,0.150206863880157,-1.94629752635956,1.0243057319903632,11.313440493954472,0.08243018251624037
1743278394079520000,-0.911894202232361,0.0926808342337608,-1.93138337135315,0.5863896313064022,11.80609620852858,0.14325186316679042
1743278394084520192,-0.829866290092468,0.0191753450781107,-1.62670850753784,0.14845264863776308,12.298775415340282,0.2040764440929902
1743278394089530112,-0.684985935688019,-0.0170447509735823,-1.33907830715179,-0.1737478142219144,12.240920248473383,0.22562295753445338
1743278394094530048,-0.585913360118866,-0.0447424724698067,-1.14093291759491,-0.17982649421959665,10.690857185368646,0.14052146302655383
1743278394099529984,-0.540105521678925,-0.0745707824826241,-1.03227269649506,-0.18590488436986344,9.14086803333882,0.05542402638125715
1743278394104530176,-0.539040267467499,-0.0926808342337608,-1.03759920597076,-0.20103637322081755,7.786819487434531,-0.0191229674965143
1743278394109529856,-0.661549389362335,-0.145945683121681,-1.13454127311707,-0.2801045574741078,7.8172303508643735,-0.0191229674965143
1743278394114540032,-0.775536119937897,-0.184296369552612,-1.28794395923615,-0.35933486713500334,7.84770357026806,-0.0191229674965143
1743278394119539968,-0.785123884677887,-0.165121033787727,-1.46265268325806,-0.4384030513882936,7.878114433697903,-0.0191229674965143
1743278394124540160,-0.829866290092468,-0.0809625685214996,-1.59794533252716,-0.06950731813829886,9.50926925925781,0.30938752871555314
1743278394129539840,-0.843715190887451,-0.00106529693584889,-1.71725869178772,0.30759281761159835,11.169726311818767,0.6439118375464391
1743278394134540032,-0.915090024471283,0.0340895019471645,-1.80674362182617,0.6847109353430774,12.830262543105228,0.9784520981349346
1743278394139549952,-1.02268505096436,-0.00213059387169778,-1.91540396213531,0.745795726776123,13.043032224037102,1.7325904332760682
1743278394144550144,-1.04825210571289,-0.0692443028092384,-1.98890936374664,0.745795726776123,12.976125103852224,2.565887203221614
1743278394149550080,-0.637047588825226,-0.378180414438248,-1.46371793746948,0.745795726776123,12.90922117397443,3.399144239390222
1743278394154550016,-0.0468730665743351,-0.78086268901825,-0.608284592628479,0.4708059722182967,11.738153442810924,2.188695148061778
1743278394159549952,0.00852237548679113,-1.01096677780151,0.256736576557159,0.07571073086229663,10.084831852421157,0.08557273391681752
1743278394164560128,0.172578096389771,-0.998183250427246,0.803233861923218,-0.3201946337772048,8.428120207747533,-2.0218620288909745
1743278394169560064,0.193884029984474,-0.918285965919495,0.723336637020111,-0.3494711145747329,7.996314504081702,-3.128573141392508
1743278394174560000,-0.172578096389771,-1.01629328727722,-0.364331543445587,-0.08183890657790588,8.555909166475782,-3.426618076815024
1743278394179559936,-0.174708694219589,-0.6359823346138,-0.103333801031113,0.1857805400128561,9.115477145927729,-3.7246488006728145
1743278394184560128,0.332372665405273,-0.445294111967087,0.0894849449396133,0.3367681023163691,9.511271784724483,-3.6479452571614317
1743278394189570048,-0.313197284936905,-0.343025594949722,0.0916155353188515,0.31848506355218753,9.669724863329641,-3.026321635250253
1743278394194569984,0.299348413944244,-0.226908251643181,-0.0458077676594257,0.3002376981611241,9.827868772552854,-2.405910908618109
1743278394199569920,-0.136358007788658,-0.0234365332871675,-0.00852237548679113,0.26582653162829556,9.956877245301117,-2.04754878611106
1743278394204570112,0.0926808342337608,0.0724401921033859,0.00958767253905535,0.18680371178931382,10.005506950536626,-2.412269453344971
1743278394209570048,0.0394159853458405,0.189622864127159,0.0138488598167896,0.10778465996577358,10.054134336980162,-2.7769727297402764
1743278394214579968,-0.0191753450781107,0.360070377588272,-0.00745707890018821,0.007816533120468361,10.053881146271971,-3.068233430605256
1743278394219579904,0.012783563695848,0.607219219207764,-0.0266324244439602,-0.2415523557695124,9.701115191150077,-2.8249466748272654
1743278394224580096,0.0213059391826391,0.870347619056702,-0.0159794539213181,-0.49093313578957226,9.348332414419527,-2.5816483179450938
1743278394229580032,-0.0245018284767866,1.08234167098999,0.137423306703568,-0.740302024679553,8.995566459297633,-2.338361562167103
1743278394234579968,0.0990726128220558,1.25918102264404,0.136358007788658,-0.644670284879751,9.374450837317942,-1.351490252090366
1743278394239579904,-0.0181100480258465,1.39660429954529,-0.113986775279045,-0.5412718625487506,9.76979760293131,-0.34791737239997955
1743278394244590080,0.037285391241312,1.48502385616302,0.0351548008620739,-0.437661426858338,10.165955007566252,0.6577132839260789
1743278394249590016,0.0937461331486702,1.45839154720306,0.144880384206772,-0.04443280772487718,10.179939605899195,1.4934763645216367
1743278394254589952,0.037285391241312,1.30605399608612,0.0426118783652782,0.405669089944095,10.119114978761644,2.296360896732406
1743278394259589888,0.0575260370969772,1.01948916912079,0.0564607381820679,0.8557495255733155,10.058293251901947,3.099207145301548
1743278394264600064,0.037285391241312,0.615741610527039,0.124639742076397,0.9268992869557215,9.811761965675894,2.992170636012391
1743278394269600000,0.0191753450781107,0.219451159238815,0.139553904533386,0.8296450634972681,9.483529229113234,2.4815859581190587
1743278394274599936,0.0276977196335793,-0.128900930285454,0.0873543471097946,0.7323862024810703,9.15528084080595,1.970976933047342
1743278394279599872,-0.00106529693584889,-0.402682244777679,-0.00745707890018821,0.6350980405812272,9.316891307844116,1.4535479609551616
1743278394284600064,-0.0191753450781107,-0.602958023548126,-0.112921476364136,0.5377772445673941,9.882568403866495,0.9304486349838426
1743278394289600000,-0.036220096051693,-0.736120164394379,-0.148076266050339,0.44046108906452863,10.448218526920343,0.40737425176123465
1743278394294609920,-0.0223712362349033,-0.811756253242493,-0.088419646024704,0.3627152415678343,10.6051886890397,0.006766380554931173
1743278394299609856,0.00106529693584889,-0.824539840221405,0.0351548008620739,0.3140888716062534,10.161472938218209,-0.21205228664037323
1743278394304610048,0.0223712362349033,-0.809625685214996,0.121443852782249,0.26546018290117135,9.717736028856311,-0.4308813881815455
1743278394309609984,0.0117182666435838,-0.784058511257172,0.132096812129021,0.20735213605837646,9.417821103823721,-0.6465404201807138
1743278394314609920,0.00852237548679113,-0.741446673870087,0.0788319706916809,0.1222506433267317,9.527237334308644,-0.8532154737883999
1743278394319619840,-0.00426118774339557,-0.682855367660522,0.0245018284767866,0.036982778231840846,9.636867472167678,-1.0602945745636387
1743278394324620032,-0.00532648479565978,-0.6018927693367,-0.0490036569535732,-0.04812485391114903,9.74629159582984,-1.244404151404054
1743278394329619968,-0.0159794539213181,-0.516669034957886,-0.0905502364039421,-0.1332752068219191,9.855770643512983,-1.2565684816099136
1743278394334619904,-0.0159794539213181,-0.426118791103363,-0.0756360813975334,-0.2184296201185988,9.965254911693368,-1.2687333918706205
1743278394339620096,-0.00745707890018821,-0.339829742908478,-0.0159794539213181,-0.30358403341527845,10.074739179873752,-1.2808983021313272
1743278394344630016,0.00106529693584889,-0.260997772216797,0.0330242030322552,-0.1697977807481671,9.965315841076047,-1.079944484867267
1743278394349630208,0.0106529695913196,-0.172578096389771,0.0404812842607498,-0.029988178694910883,9.849821200584156,-0.8732694502063004
1743278394354629888,0.0,-0.0660484060645103,0.00639178184792399,0.1098147568695958,9.734332067179832,-0.6666042703533951
1743278394359630080,-0.00426118774339557,0.00532648479565978,-0.0181100480258465,0.133860781788826,9.764831327240348,-0.5706220238761294
1743278394364630016,-0.00745707890018821,-0.00213059387169778,-0.0213059391826391,0.133860781788826,9.825653054100034,-0.49763599524697255
1743278394369640192,-0.003195890923962,-0.00532648479565978,-0.0138488598167896,0.133860781788826,9.886599492907408,-0.42450031236999475
1743278394374639872,0.00106529693584889,0.00106529693584889,0.00958767253905535,0.13803317958699984,9.876490855913424,-0.4099271260616645
1743278394379640064,0.003195890923962,0.00106529693584889,0.0159794539213181,0.14411572696801628,9.833912758823303,-0.422092220823697
1743278394384640000,0.00426118774339557,-0.00532648479565978,0.00532648479565978,0.15019798431721024,9.791336691968594,-0.4342567355220846
1743278394389640192,-0.003195890923962,-0.00426118774339557,-0.0159794539213181,0.14968699824663617,9.791616690072962,-0.44312498855737265
1743278394394649856,-0.003195890923962,-0.003195890923962,-0.0149141578003764,0.14359265199190877,9.828182691619078,-0.44921933481209975
1743278394399650048,-0.003195890923962,-0.00639178184792399,-0.00745707890018821,0.13751019686155408,9.864677346567214,-0.4553017899424541
1743278394404649984,0.003195890923962,-0.00532648479565978,0.00639178184792399,0.1362920200154755,9.879280152603602,-0.458951205015182
1743278394409650176,0.00106529693584889,-0.00532648479565978,0.00532648479565978,0.14237069527647855,9.861044316287764,-0.458951205015182
1743278394414649856,0.003195890923962,-0.00106529693584889,0.00213059387169778,0.14844908069029197,9.842809349504462,-0.458951205015182
1743278394419660032,0.0,-0.00532648479565978,-0.00639178184792399,0.152983739972115,9.83076262590496,-0.458951205015182
1743278394424659968,-0.00106529693584889,0.0,-0.012783563695848,0.152983739972115,9.836844617843802,-0.458951205015182
1743278394429660160,-0.00106529693584889,-0.00213059387169778,-0.012783563695848,0.152983739972115,9.842926899801812,-0.458951205015182
1743278394434659840,0.00106529693584889,-0.00426118774339557,0.00426118774339557,0.15366243076431493,9.84832763671875,-0.458951205015182
1743278394439660032,0.00213059387169778,-0.00532648479565978,0.003195890923962,0.1597218191398009,9.84832763671875,-0.458951205015182
1743278394444669952,0.0,-0.003195890923962,-0.003195890923962,0.16579305354443982,9.84832763671875,-0.458951205015182
1743278394449670144,0.00213059387169778,-0.00426118774339557,-0.00639178184792399,0.1718524419199258,9.84832763671875,-0.458951205015182
1743278394454670080,0.00213059387169778,-0.003195890923962,-0.00958767253905535,0.172106698155403,9.842500950017854,-0.4647781459852352
1743278394459719936,0.00213059387169778,-0.00745707890018821,-0.00426118774339557,0.172106698155403,9.83635814722,-0.4709212168471484
1743278394464720128,0.0,-0.00532648479565978,-0.00213059387169778,0.172106698155403,9.83027595750863,-0.4770036719775031
1743278394469719808,0.00639178184792399,-0.00745707890018821,0.003195890923962,0.172106698155403,9.839228825330931,-0.47306241330604476
1743278394474729984,0.0,-0.003195890923962,-0.00426118774339557,0.172106698155403,9.851418054804999,-0.4669676845884842
1743278394479729920,0.0,-0.003195890923962,-0.00852237548679113,0.172106698155403,9.863582342008801,-0.46088542723929027
1743278394484730112,0.0,-0.0106529695913196,-0.0106529695913196,0.16796107663736537,9.859159626133877,-0.4630968265332198
1743278394489729792,0.003195890923962,-0.00532648479565978,-0.00745707890018821,0.1618827833524065,9.847003266910278,-0.46917511981817905
1743278394494739968,0.00426118774339557,-0.00532648479565978,-0.003195890923962,0.155792026827199,9.834821981672345,-0.47526587634338685
1743278394499739904,0.00426118774339557,-0.00639178184792399,0.00213059387169778,0.152983739972115,9.832477509235959,-0.47480202417727
1743278394504740096,0.00213059387169778,-0.00639178184792399,0.0,0.152983739972115,9.838559791193967,-0.4687194767962536
1743278394509740032,-0.00426118774339557,0.0,-0.00745707890018821,0.152983739972115,9.844642073151977,-0.46263692941523715
1743278394514739968,0.00106529693584889,-0.00745707890018821,-0.00745707890018821,0.1505872433698777,9.845931244691997,-0.4565547084129448
1743278394519740160,0.00106529693584889,-0.00745707890018821,-0.003195890923962,0.144504788239523,9.839849054980624,-0.45047225328259044
