#timestamp [ns],w_RS_S_x [rad s^-1],w_RS_S_y [rad s^-1],w_RS_S_z [rad s^-1],a_RS_S_x [m s^-2],a_RS_S_y [m s^-2],a_RS_S_z [m s^-2]
1743277951291490048,0.0,0.0,0.0,0.1534216813819393,9.779719231659692,-0.4411420717438801
1743277951296489984,0.003195890923962,-0.00532648479565978,0.00106529693584889,0.152983739972115,9.783124969788595,-0.439828246831894
1743277951301490176,0.00106529693584889,-0.00745707890018821,0.0,0.152983739972115,9.795290140385774,-0.439828246831894
1743277951306489856,-0.00213059387169778,-0.00852237548679113,-0.00426118774339557,0.152983739972115,9.80745473091569,-0.439828246831894
1743277951311500032,0.0,-0.00532648479565978,-0.00426118774339557,0.152983739972115,9.81008243560791,-0.4446090588845719
1743277951316499968,0.00106529693584889,-0.00852237548679113,-0.00532648479565978,0.152983739972115,9.81008243560791,-0.45069122398750255
1743277951321500160,0.00106529693584889,-0.00639178184792399,-0.00532648479565978,0.152983739972115,9.81008243560791,-0.45677367911785693
1743277951326499840,-0.00213059387169778,-0.00213059387169778,0.00106529693584889,0.15688843839814112,9.81008243560791,-0.458951205015182
1743277951331500032,-0.00213059387169778,-0.003195890923962,-0.003195890923962,0.16297098577915722,9.81008243560791,-0.458951205015182
1743277951336499968,0.0,-0.00106529693584889,0.00106529693584889,0.16905324312835085,9.81008243560791,-0.458951205015182
1743277951341510144,0.0,-0.00532648479565978,-0.00213059387169778,0.16906542446489495,9.81008243560791,-0.4619924787056902
1743277951346509824,-0.00106529693584889,-0.00106529693584889,-0.00106529693584889,0.16298316711570132,9.81008243560791,-0.46807473605488414
1743277951351510016,0.0,-0.00426118774339557,-0.00426118774339557,0.15690061973468522,9.81008243560791,-0.4741572834359006
1743277951356509952,-0.00213059387169778,-0.00745707890018821,-0.00213059387169778,0.152983739972115,9.812247793851832,-0.4759088184529423
1743277951361510144,-0.00106529693584889,-0.00213059387169778,-0.003195890923962,0.152983739972115,9.818330286899185,-0.4698263633225876
1743277951366519808,-0.003195890923962,-0.00213059387169778,-0.00639178184792399,0.152983739972115,9.824424671145037,-0.46373201706786016
1743277951371520000,-0.00106529693584889,-0.00426118774339557,-0.00213059387169778,0.152983739972115,9.82920551300049,-0.46025286783446495
1743277951376519936,0.00213059387169778,0.0,-0.00745707890018821,0.152983739972115,9.82920551300049,-0.4663351251836589
1743277951381520128,0.003195890923962,-0.00639178184792399,-0.00745707890018821,0.152983739972115,9.82920551300049,-0.4724176725646753
1743277951386519808,0.00426118774339557,-0.003195890923962,-0.00532648479565978,0.15340950023014285,9.828779750088344,-0.47764840294044314
1743277951391529984,-0.00106529693584889,-0.00213059387169778,0.0,0.15950413651229367,9.822685075813261,-0.471553766658292
1743277951396529920,0.0,-0.00426118774339557,-0.00426118774339557,0.16558630161522433,9.816602872795139,-0.465471601555361
1743277951401530112,0.00213059387169778,-0.00532648479565978,-0.00106529693584889,0.17166875674557872,9.810520379747787,-0.45938914642500633
1743277951406529792,0.003195890923962,-0.00958767253905535,-0.00745707890018821,0.172106698155403,9.815726780090833,-0.4645955143124336
1743277951411529984,0.00426118774339557,-0.00426118774339557,-0.00639178184792399,0.172106698155403,9.821809365389422,-0.47067806169345006
1743277951416529920,0.00426118774339557,-0.00745707890018821,0.00106529693584889,0.172106698155403,9.82789166065438,-0.476760319042644
1743277951421540096,-0.00106529693584889,-0.00639178184792399,-0.00426118774339557,0.16732588610272506,9.824424671145037,-0.47329335114579285
1743277951426539776,-0.00106529693584889,0.00106529693584889,-0.00213059387169778,0.16124372099979442,9.818342468126916,-0.4672111860428618
1743277951431539968,0.0,-0.00852237548679113,-0.003195890923962,0.15516126586944004,9.812259975079565,-0.46112873091250717
1743277951436539904,0.0,-0.00213059387169778,-0.00426118774339557,0.15688843839814112,9.813987158375166,-0.458951205015182
1743277951441540096,-0.00213059387169778,-0.00426118774339557,-0.00106529693584889,0.16297098577915722,9.820069743673756,-0.458951205015182
1743277951446550016,0.0,-0.00639178184792399,-0.00745707890018821,0.16906542446489495,9.826164220351195,-0.458951205015182
1743277951451549952,0.003195890923962,-0.00426118774339557,-0.00639178184792399,0.1690654705902258,9.82920551300049,-0.458951205015182
1743277951456549888,-0.00213059387169778,-0.00213059387169778,-0.00532648479565978,0.16298330548729517,9.82920551300049,-0.458951205015182
1743277951461550080,-0.00213059387169778,-0.00426118774339557,0.00106529693584889,0.1569008503569408,9.82920551300049,-0.458951205015182
1743277951466550016,0.0,-0.00958767253905535,-0.003195890923962,0.15515049778484535,9.82920551300049,-0.458951205015182
1743277951471559936,0.0,-0.00639178184792399,-0.00213059387169778,0.16124882110642355,9.82920551300049,-0.458951205015182
1743277951476560128,-0.00213059387169778,-0.003195890923962,-0.00639178184792399,0.16733524554368326,9.82920551300049,-0.458951205015182
1743277951481560064,0.00426118774339557,-0.00532648479565978,0.00106529693584889,0.172106698155403,9.827891680580858,-0.4576373807857091
1743277951486560000,-0.00213059387169778,-0.00852237548679113,-0.00639178184792399,0.172106698155403,9.821809187533507,-0.4515549256553547
1743277951491559936,0.003195890923962,-0.00852237548679113,0.0,0.172106698155403,9.815726984515386,-0.4454727605524241
1743277951496560128,-0.00213059387169778,-0.00532648479565978,0.00106529693584889,0.172106698155403,9.810520386389946,-0.4402661948838363
1743277951501570048,-0.00213059387169778,-0.00532648479565978,-0.00426118774339557,0.172106698155403,9.816614863067386,-0.446360633569574
1743277951506569984,0.00106529693584889,-0.00852237548679113,-0.003195890923962,0.172106698155403,9.822697448365975,-0.4524431809505901
1743277951511569920,-0.00213059387169778,-0.003195890923962,-0.00426118774339557,0.172106698155403,9.828779743630934,-0.45852543829978376
1743277951516570112,-0.00106529693584889,-0.003195890923962,-0.00745707890018821,0.172106698155403,9.834861961032658,-0.4532945101428555
1743277951521570048,0.00106529693584889,-0.003195890923962,-0.00106529693584889,0.172106698155403,9.840943860729261,-0.4472123450399248
1743277951526579968,-0.00106529693584889,-0.00639178184792399,-0.00426118774339557,0.172106698155403,9.847038231060884,-0.441117708757774
1743277951531579904,0.00106529693584889,-0.00745707890018821,-0.00213059387169778,0.16731392228894815,9.83874226424997,-0.44462102269834886
1743277951536580096,0.00426118774339557,-0.00532648479565978,-0.00532648479565978,0.16123137490793205,9.82657739699337,-0.45070357007936496
1743277951541580032,0.00213059387169778,-0.00213059387169778,-0.00639178184792399,0.15514911755873842,9.81441310978957,-0.45678582742855856
1743277951546579968,-0.00106529693584889,-0.00745707890018821,-0.00426118774339557,0.152983739972115,9.813999629821279,-0.4628683748095749
1743277951551589888,-0.00213059387169778,0.00106529693584889,-0.00426118774339557,0.152983739972115,9.820094106498717,-0.46896281349531294
1743277951556590080,0.00213059387169778,-0.00426118774339557,-0.00213059387169778,0.152983739972115,9.826176691797306,-0.47504536087632937
1743277951561590016,0.00213059387169778,-0.00532648479565978,-0.00532648479565978,0.152983739972115,9.82920551300049,-0.4750207544814972
1743277951566589952,-0.00106529693584889,-0.003195890923962,-0.00639178184792399,0.152983739972115,9.82920551300049,-0.4689382993511425
1743277951571589888,0.00106529693584889,-0.00532648479565978,0.0,0.152983739972115,9.82920551300049,-0.46285613424821154
1743277951576600064,-0.00106529693584889,-0.003195890923962,-0.00426118774339557,0.15517348023182662,9.82920551300049,-0.458951205015182
1743277951581600000,-0.00106529693584889,-0.00852237548679113,-0.00106529693584889,0.16125573758102024,9.82920551300049,-0.458951205015182
1743277951586600192,-0.00106529693584889,-0.00426118774339557,-0.00426118774339557,0.16733828496203634,9.82920551300049,-0.458951205015182
1743277951591599872,0.003195890923962,-0.0106529695913196,-0.00106529693584889,0.17079287392593012,9.82920551300049,-0.458951205015182
1743277951596600064,0.00532648479565978,-0.00213059387169778,-0.003195890923962,0.16471041879557574,9.82920551300049,-0.458951205015182
1743277951601600000,0.0,-0.00639178184792399,-0.00106529693584889,0.15862825369264508,9.82920551300049,-0.458951205015182
1743277951606610176,-0.00106529693584889,0.0,-0.003195890923962,0.1534338693606014,9.82920551300049,-0.458951205015182
1743277951611609856,0.0,-0.00426118774339557,-0.003195890923962,0.15951612670979504,9.82920551300049,-0.458951205015182
1743277951616610048,-0.00106529693584889,-0.0106529695913196,-0.00213059387169778,0.16559867409081114,9.82920551300049,-0.458951205015182
1743277951621609984,-0.00106529693584889,-0.00639178184792399,-0.003195890923962,0.17168093144000476,9.82920551300049,-0.458951205015182
1743277951626609920,-0.003195890923962,-0.00426118774339557,-0.00532648479565978,0.172106698155403,9.82920551300049,-0.458951205015182
1743277951631619840,0.00213059387169778,-0.00532648479565978,-0.003195890923962,0.172106698155403,9.82920551300049,-0.458951205015182
1743277951636620032,0.0,-0.00426118774339557,0.00106529693584889,0.172106698155403,9.82920551300049,-0.458951205015182
1743277951641619968,0.0,-0.00426118774339557,-0.00213059387169778,0.16731392228894815,9.82920551300049,-0.4637439808816371
1743277951646620160,0.003195890923962,-0.00426118774339557,-0.00106529693584889,0.16123137490793205,9.82920551300049,-0.46982652826265353
1743277951651619840,0.00106529693584889,-0.00745707890018821,-0.00426118774339557,0.15514911755873842,9.82920551300049,-0.47590878561184746
1743277951656630016,0.00426118774339557,-0.003195890923962,0.00106529693584889,0.152983739972115,9.825278698314847,-0.47414737299177473
1743277951661629952,-0.003195890923962,-0.00639178184792399,-0.00639178184792399,0.152983739972115,9.819200367138833,-0.46806907970681555
1743277951666630144,-0.00106529693584889,-0.00532648479565978,-0.003195890923962,0.152983739972115,9.813121746118219,-0.46199049657905983
1743277951671629824,0.00213059387169778,-0.00639178184792399,-0.003195890923962,0.152983739972115,9.81008243560791,-0.458951205015182
1743277951676630016,0.0,-0.00639178184792399,-0.00426118774339557,0.152983739972115,9.81008243560791,-0.458951205015182
1743277951681629952,0.0,-0.003195890923962,-0.00639178184792399,0.152983739972115,9.81008243560791,-0.458951205015182
1743277951686640128,0.00213059387169778,-0.003195890923962,-0.00213059387169778,0.152983739972115,9.81008243560791,-0.458951205015182
1743277951691639808,0.0,-0.00745707890018821,-0.00213059387169778,0.152983739972115,9.81008243560791,-0.458951205015182
1743277951696640000,0.00426118774339557,-0.0106529695913196,0.0,0.152983739972115,9.81008243560791,-0.458951205015182
1743277951701639936,0.003195890923962,-0.00532648479565978,-0.003195890923962,0.152983739972115,9.81008243560791,-0.458951205015182
1743277951706640128,0.0,-0.00532648479565978,-0.00426118774339557,0.152983739972115,9.81008243560791,-0.458951205015182
1743277951711649792,0.0,-0.00639178184792399,-0.00639178184792399,0.152983739972115,9.81008243560791,-0.458951205015182
1743277951716649984,-0.00106529693584889,-0.003195890923962,-0.00745707890018821,0.152983739972115,9.81008243560791,-0.458951205015182
1743277951721649920,0.003195890923962,-0.00106529693584889,-0.00745707890018821,0.152983739972115,9.81008243560791,-0.458951205015182
1743277951726650112,-0.00106529693584889,-0.00532648479565978,-0.00426118774339557,0.152983739972115,9.81008243560791,-0.458951205015182
1743277951731650048,0.003195890923962,-0.00532648479565978,-0.00639178184792399,0.152983739972115,9.81008243560791,-0.458951205015182
1743277951736659968,-0.003195890923962,-0.00426118774339557,-0.00532648479565978,0.152983739972115,9.815735564750867,-0.458951205015182
1743277951741660160,-0.00106529693584889,-0.00639178184792399,-0.003195890923962,0.152983739972115,9.821814185771483,-0.458951205015182
1743277951746660096,-0.00106529693584889,-0.003195890923962,-0.00106529693584889,0.152983739972115,9.827892516947497,-0.458951205015182
1743277951751660032,0.0,-0.00106529693584889,0.0,0.152983739972115,9.82443678004801,-0.458951205015182
1743277951756659968,0.0,-0.00532648479565978,0.0,0.152983739972115,9.818354484783052,-0.458951205015182
1743277951761670144,0.00106529693584889,-0.00745707890018821,-0.003195890923962,0.152983739972115,9.812259718071981,-0.458951205015182
1743277951766670080,-0.00106529693584889,0.0,-0.00426118774339557,0.15688866920514435,9.813987389183609,-0.458951205015182
1743277951771670016,0.00426118774339557,-0.00532648479565978,-0.00426118774339557,0.1629711243354987,9.820069882230962,-0.458951205015182
1743277951776669952,0.00213059387169778,-0.00426118774339557,-0.00213059387169778,0.16905328943842937,9.826152085249083,-0.458951205015182
1743277951781670144,-0.00213059387169778,-0.00426118774339557,0.0,0.16907760580143905,9.826176401763675,-0.458951205015182
1743277951786670080,0.0,-0.00852237548679113,-0.00532648479565978,0.16299534845224542,9.820094106498717,-0.458951205015182
1743277951791680000,0.00106529693584889,-0.00213059387169778,0.00106529693584889,0.15690061973468522,9.813999339787648,-0.458951205015182
1743277951796679936,0.0,0.00213059387169778,-0.00639178184792399,0.152983739972115,9.81008243560791,-0.458951205015182
1743277951801680128,0.00106529693584889,-0.00745707890018821,0.0,0.152983739972115,9.81008243560791,-0.458951205015182
1743277951806680064,0.00532648479565978,-0.00852237548679113,-0.00426118774339557,0.152983739972115,9.81008243560791,-0.458951205015182
1743277951811680000,-0.00106529693584889,-0.00532648479565978,-0.00532648479565978,0.152983739972115,9.811371925129059,-0.458951205015182
1743277951816689920,0.00532648479565978,-0.00745707890018821,-0.00213059387169778,0.152983739972115,9.817466401806499,-0.458951205015182
1743277951821690112,0.003195890923962,-0.00639178184792399,-0.00213059387169778,0.152983739972115,9.823548987105088,-0.458951205015182
1743277951826690048,0.00213059387169778,-0.00426118774339557,-0.00745707890018821,0.15340950023014285,9.82920551300049,-0.458951205015182
1743277951831689984,-0.00106529693584889,-0.00639178184792399,0.0,0.15949195536049723,9.82920551300049,-0.458951205015182
1743277951836689920,0.00106529693584889,-0.0106529695913196,-0.00213059387169778,0.1655741204634279,9.82920551300049,-0.458951205015182
1743277951841700096,0.00106529693584889,-0.003195890923962,-0.00426118774339557,0.17166875674557872,9.82920551300049,-0.458951205015182
1743277951846700032,-0.00213059387169778,-0.00745707890018821,-0.00213059387169778,0.1664623888581517,9.82920551300049,-0.458951205015182
1743277951851699968,0.00106529693584889,-0.003195890923962,-0.00426118774339557,0.16037984147713558,9.82920551300049,-0.458951205015182
1743277951856699904,0.00213059387169778,-0.00639178184792399,-0.003195890923962,0.15429758412794198,9.82920551300049,-0.458951205015182
1743277951861700096,0.00426118774339557,-0.00852237548679113,-0.00106529693584889,0.152983739972115,9.82920551300049,-0.46371983591606375
1743277951866710016,-0.00426118774339557,-0.00106529693584889,-0.00745707890018821,0.152983739972115,9.82920551300049,-0.4698141821707912
1743277951871709952,0.0,-0.00532648479565978,0.0,0.152983739972115,9.82920551300049,-0.47589663730114584
1743277951876709888,0.00213059387169778,-0.00426118774339557,-0.00532648479565978,0.15688595268615657,9.82920551300049,-0.4741719504844292
1743277951881710080,-0.00213059387169778,-0.00639178184792399,-0.003195890923962,0.1629646279471593,9.82920551300049,-0.4680932752234262
1743277951886710016,0.00106529693584889,-0.00958767253905535,0.003195890923962,0.16904301336097238,9.82920551300049,-0.46201488980961275
1743277951891709952,-0.00426118774339557,-0.00532648479565978,-0.00958767253905535,0.16908978713798312,9.82920551300049,-0.458951205015182
1743277951896719872,0.00213059387169778,-0.00426118774339557,-0.003195890923962,0.16299534845224542,9.82920551300049,-0.458951205015182
1743277951901720064,0.003195890923962,-0.00639178184792399,-0.003195890923962,0.15691280107122932,9.82920551300049,-0.458951205015182
1743277951906720000,0.0,-0.003195890923962,-0.00213059387169778,0.1551382759858453,9.827050963555745,-0.458951205015182
1743277951911719936,0.00213059387169778,-0.00213059387169778,-0.00426118774339557,0.1612246080548043,9.820964593545622,-0.458951205015182
1743277951916719872,0.0,-0.00426118774339557,-0.00639178184792399,0.16731064991147698,9.81487851374959,-0.458951205015182
1743277951921730048,0.0,-0.00745707890018821,-0.00213059387169778,0.17080503533612013,9.81008243560791,-0.458951205015182
1743277951926729984,-0.00213059387169778,-0.00745707890018821,-0.003195890923962,0.1647227779869265,9.81008243560791,-0.458951205015182
1743277951931729920,-0.00532648479565978,0.003195890923962,-0.00426118774339557,0.1586402306059104,9.81008243560791,-0.458951205015182
1743277951936729856,0.0,-0.0106529695913196,-0.00213059387169778,0.152983739972115,9.81008243560791,-0.458951205015182
1743277951941730048,0.00426118774339557,-0.00639178184792399,-0.00958767253905535,0.152983739972115,9.81008243560791,-0.458951205015182
1743277951946739968,0.00426118774339557,-0.00639178184792399,-0.003195890923962,0.152983739972115,9.81008243560791,-0.458951205015182
1743277951951739904,0.003195890923962,-0.00426118774339557,-0.00745707890018821,0.152983739972115,9.81008243560791,-0.458951205015182
1743277951956739840,0.0,-0.00213059387169778,-0.00639178184792399,0.152983739972115,9.815726780090833,-0.458951205015182
1743277951961740032,0.00213059387169778,-0.00426118774339557,-0.00426118774339557,0.152983739972115,9.821809365389422,-0.458951205015182
1743277951966739968,0.003195890923962,-0.00639178184792399,-0.00213059387169778,0.152983739972115,9.82789166065438,-0.458951205015182
1743277951971750144,-0.00106529693584889,-0.00639178184792399,-0.00426118774339557,0.15776455202479295,9.82920551300049,-0.458951205015182
1743277951976749824,0.003195890923962,-0.003195890923962,0.0,0.16384671712772358,9.82920551300049,-0.458951205015182
1743277951981750016,0.00213059387169778,-0.00426118774339557,-0.00532648479565978,0.16992917225807797,9.82920551300049,-0.458951205015182
1743277951986749952,-0.00106529693584889,-0.00745707890018821,-0.00532648479565978,0.16820199972937688,9.82920551300049,-0.45504650658915585
1743277951991749888,-0.00106529693584889,0.0,-0.00745707890018821,0.16211945234836078,9.82920551300049,-0.44896395920813975
1743277951996750080,0.00426118774339557,-0.003195890923962,-0.00532648479565978,0.15603690496734468,9.82920551300049,-0.44288141182712365
1743277952001760000,-0.00213059387169778,-0.003195890923962,-0.00745707890018821,0.152983739972115,9.82920551300049,-0.44590682995964953
1743277952006759936,0.0,0.00106529693584889,-0.00213059387169778,0.152983739972115,9.82920551300049,-0.4580634165295676
1743277952011759872,-0.00213059387169778,-0.003195890923962,-0.003195890923962,0.152983739972115,9.82920551300049,-0.47022058278507867
1743277952016760064,-0.00106529693584889,-0.003195890923962,-0.00213059387169778,0.15513693622219432,9.82920551300049,-0.4737677706983123
1743277952021760000,-0.00213059387169778,-0.00532648479565978,-0.00213059387169778,0.16121919357138795,9.82920551300049,-0.4616032559999247
1743277952026770176,0.00106529693584889,-0.00958767253905535,-0.003195890923962,0.16731392228894815,9.82920551300049,-0.44941379856480396
1743277952031770112,0.00213059387169778,-0.00745707890018821,-0.00426118774339557,0.170817236229523,9.827916043036323,-0.441117708757774
1743277952036770048,0.0,-0.00426118774339557,-0.003195890923962,0.16473478109916861,9.82183354998897,-0.4472001638881284
1743277952041769984,0.00213059387169778,-0.00532648479565978,-0.003195890923962,0.15865261599623795,9.815751346970849,-0.453282328991059
1743277952046770176,0.00213059387169778,-0.0106529695913196,-0.00106529693584889,0.152983739972115,9.810495760276908,-0.45853788292276404
1743277952051780096,-0.00106529693584889,-0.003195890923962,-0.003195890923962,0.152983739972115,9.816586357240203,-0.4524473239269863
1743277952056780032,0.00532648479565978,-0.0117182666435838,-0.00213059387169778,0.152983739972115,9.82266507039464,-0.4463686486659836
1743277952061779968,-0.00106529693584889,-0.00745707890018821,-0.00426118774339557,0.152983739972115,9.828743493700081,-0.44029026325217047
1743277952066780160,0.00213059387169778,-0.00639178184792399,-0.00106529693584889,0.152983739972115,9.82920551300049,-0.4454484834878796
1743277952071779840,-0.00213059387169778,-0.00426118774339557,-0.003195890923962,0.152983739972115,9.82920551300049,-0.45153074083707323
1743277952076780032,0.00426118774339557,-0.00213059387169778,-0.00106529693584889,0.152983739972115,9.82920551300049,-0.45761328821808933
1743277952081789952,-0.00426118774339557,-0.00213059387169778,-0.00213059387169778,0.152983739972115,9.82920551300049,-0.458951205015182
1743277952086790144,-0.00106529693584889,-0.003195890923962,-0.00639178184792399,0.152983739972115,9.82920551300049,-0.458951205015182
1743277952091790080,0.00213059387169778,-0.00532648479565978,-0.00213059387169778,0.152983739972115,9.82920551300049,-0.458951205015182
1743277952096790016,-0.00106529693584889,-0.00426118774339557,-0.003195890923962,0.15686436575687543,9.82920551300049,-0.4628318307999426
1743277952101789952,-0.00213059387169778,-0.00426118774339557,0.0,0.16294662310606906,9.82920551300049,-0.4689140881491366
1743277952106800128,0.00106529693584889,-0.00639178184792399,-0.00426118774339557,0.16904135182362925,9.82920551300049,-0.4750088168666971
1743277952111800064,0.00106529693584889,-0.00639178184792399,-0.00639178184792399,0.16908983289381868,9.82920551300049,-0.4720404326753022
1743277952116800000,0.00213059387169778,-0.00532648479565978,-0.00213059387169778,0.1630073777634643,9.82920551300049,-0.4598755224145931
1743277952121799936,0.0,0.0,-0.00532648479565978,0.15692521266053366,9.82920551300049,-0.4477111922087315
1743277952126800128,0.0,-0.00426118774339557,-0.00106529693584889,0.15512475488565025,9.82706448474023,-0.4419692617454292
1743277952131810048,-0.00106529693584889,-0.003195890923962,-0.00639178184792399,0.16121919357138795,9.82097000806279,-0.44806370043116694
1743277952136809984,0.00106529693584889,-0.00532648479565978,0.00106529693584889,0.16730174095240405,9.814887422764201,-0.45414624781218305
1743277952141809920,-0.00106529693584889,-0.003195890923962,-0.00426118774339557,0.172106698155403,9.81008243560791,-0.458951205015182
1743277952146810112,-0.00213059387169778,0.00106529693584889,-0.00213059387169778,0.172106698155403,9.81008243560791,-0.458951205015182
1743277952151810048,0.0,-0.00426118774339557,-0.003195890923962,0.172106698155403,9.81008243560791,-0.458951205015182
1743277952156819968,0.00213059387169778,-0.003195890923962,-0.003195890923962,0.172106698155403,9.810483842152506,-0.458951205015182
1743277952161819904,0.003195890923962,-0.00852237548679113,-0.003195890923962,0.172106698155403,9.816566137417464,-0.458951205015182
1743277952166820096,0.0,-0.00426118774339557,-0.00532648479565978,0.172106698155403,9.822648722716053,-0.458951205015182
1743277952171820032,-0.00106529693584889,-0.00639178184792399,-0.00213059387169778,0.172106698155403,9.828731017981012,-0.458951205015182
1743277952176819968,0.00213059387169778,-0.003195890923962,-0.00213059387169778,0.16649872789026224,9.82359750777621,-0.45334323475004124
1743277952181819904,0.00106529693584889,-0.00639178184792399,-0.00532648479565978,0.16041656278733157,9.81751530475809,-0.44726106964711054
1743277952186830080,0.00426118774339557,-0.00532648479565978,-0.00106529693584889,0.15432192650518076,9.811420630483005,-0.44116643336495975
1743277952191830016,0.0,-0.00213059387169778,-0.00106529693584889,0.15772477045295716,9.814823495643536,-0.44456927731273616
1743277952196829952,-0.003195890923962,-0.00426118774339557,-0.00426118774339557,0.16380344571395988,9.820902208797973,-0.45064795257373885
1743277952201829888,-0.00213059387169778,0.0,-0.00213059387169778,0.16988183112777297,9.826980632103414,-0.45672633798755197
1743277952206830080,0.00106529693584889,-0.00745707890018821,-0.00106529693584889,0.172106698155403,9.825349225849525,-0.4628074681268544
1743277952211840000,-0.003195890923962,0.0,-0.003195890923962,0.172106698155403,9.819254749172085,-0.4689019068125925
1743277952216839936,-0.003195890923962,-0.003195890923962,-0.00639178184792399,0.172106698155403,9.813172163873496,-0.4749844541936089
1743277952221839872,0.00106529693584889,-0.00213059387169778,-0.00532648479565978,0.16911419519741155,9.81307495722066,-0.47508166024047943
1743277952226840064,0.00106529693584889,-0.003195890923962,-0.00213059387169778,0.16303174006705717,9.819157450268012,-0.4689992051101247
1743277952231840000,0.003195890923962,-0.00958767253905535,-0.003195890923962,0.15694957496412654,9.825239653286133,-0.46291704000719375
1743277952236849920,0.00213059387169778,-0.00852237548679113,-0.00106529693584889,0.152983739972115,9.82920551300049,-0.458951205015182
1743277952241849856,0.00106529693584889,-0.00532648479565978,-0.003195890923962,0.152983739972115,9.82920551300049,-0.458951205015182
1743277952246850048,-0.00213059387169778,-0.00213059387169778,-0.003195890923962,0.152983739972115,9.82920551300049,-0.458951205015182
1743277952251849984,-0.003195890923962,-0.003195890923962,-0.00958767253905535,0.152983739972115,9.82802640728276,-0.4577721066477512
1743277952256849920,0.0,-0.00639178184792399,-0.00213059387169778,0.152983739972115,9.82194769412832,-0.45169343138674845
1743277952261910016,0.00213059387169778,-0.00745707890018821,-0.00426118774339557,0.152983739972115,9.815796228875763,-0.4455420044811476
1743277952266920192,0.00106529693584889,-0.00213059387169778,-0.00426118774339557,0.15336106565038085,9.81008243560791,-0.4402055725101598
1743277952271919872,0.00106529693584889,-0.00532648479565978,0.0,0.1594432307533115,9.81008243560791,-0.4462877376130905
1743277952276920064,0.00213059387169778,-0.00213059387169778,-0.00213059387169778,0.16552568588366587,9.81008243560791,-0.45237019274344487
1743277952281920000,0.00106529693584889,-0.00532648479565978,-0.00639178184792399,0.1716078509865965,9.81008243560791,-0.4584523578463755
1743277952286920192,0.00106529693584889,-0.00426118774339557,-0.00426118774339557,0.16652656006057062,9.815662608488381,-0.458951205015182
1743277952291919872,0.003195890923962,-0.00639178184792399,0.0,0.16044817464675754,9.821741031793822,-0.458951205015182
1743277952296930048,0.0,-0.00639178184792399,-0.00639178184792399,0.1543573258037902,9.827831918606114,-0.458951205015182
1743277952301929984,-0.00213059387169778,-0.00745707890018821,0.00213059387169778,0.152983739972115,9.82920551300049,-0.458951205015182
1743277952306930176,0.0,-0.00745707890018821,-0.00106529693584889,0.152983739972115,9.82920551300049,-0.458951205015182
1743277952311929856,0.00213059387169778,-0.00852237548679113,-0.00106529693584889,0.152983739972115,9.82920551300049,-0.458951205015182
1743277952316930048,-0.00106529693584889,-0.00639178184792399,-0.00426118774339557,0.152983739972115,9.82920551300049,-0.458951205015182
1743277952321939968,0.003195890923962,-0.003195890923962,-0.00426118774339557,0.152983739972115,9.82920551300049,-0.458951205015182
1743277952326940160,0.00213059387169778,-0.00426118774339557,-0.00639178184792399,0.152983739972115,9.82920551300049,-0.458951205015182
1743277952331939840,0.00213059387169778,-0.00213059387169778,-0.00532648479565978,0.15595188062651358,9.826237353843204,-0.45598306436078345
1743277952336940032,-0.00213059387169778,-0.00639178184792399,0.0,0.16203433575686796,9.820154860795851,-0.449900609230429
1743277952341939968,-0.00106529693584889,-0.00852237548679113,0.0,0.1681165008597986,9.81407265777773,-0.4438184441274984
1743277952346950144,0.00106529693584889,-0.00426118774339557,-0.00745707890018821,0.17000222725150005,9.81218691963073,-0.44193271773579695
1743277952351949824,-0.003195890923962,-0.00532648479565978,-0.00426118774339557,0.16391996990230642,9.818269214895688,-0.44801497508499055
1743277952356950016,0.00106529693584889,-0.00532648479565978,-0.00213059387169778,0.15783742252129032,9.824351800194277,-0.4540975224660067
1743277952361949952,-0.00106529693584889,-0.00532648479565978,-0.00639178184792399,0.152983739972115,9.827977712651348,-0.45772341231989266
1743277952366950144,0.0,0.0,-0.00532648479565978,0.152983739972115,9.821898999496911,-0.45164473705888997
1743277952371959808,0.0,-0.003195890923962,-0.00106529693584889,0.152983739972115,9.815808402533616,-0.4455541780631122
1743277952376960000,0.003195890923962,-0.003195890923962,-0.003195890923962,0.152983739972115,9.810435401182897,-0.4401812102065669
1743277952381959936,0.00106529693584889,-0.00745707890018821,-0.003195890923962,0.152983739972115,9.816517604201017,-0.4462633753094976
1743277952386960128,0.00106529693584889,-0.00532648479565978,-0.00532648479565978,0.152983739972115,9.82260009724837,-0.452345830439852
1743277952391959808,0.00106529693584889,-0.003195890923962,-0.003195890923962,0.152983739972115,9.828682300266491,-0.45842799554278263
1743277952396960000,0.00106529693584889,-0.00213059387169778,-0.00426118774339557,0.15853953090301812,9.82920551300049,-0.458951205015182
1743277952401969920,-0.003195890923962,-0.00639178184792399,-0.00213059387169778,0.16463008989879585,9.82920551300049,-0.458951205015182
1743277952406970112,-0.003195890923962,-0.00426118774339557,-0.00213059387169778,0.17070876515979858,9.82920551300049,-0.458951205015182
1743277952411969792,0.0,-0.00213059387169778,-0.003195890923962,0.172106698155403,9.82920551300049,-0.458951205015182
1743277952416969984,0.00213059387169778,-0.00426118774339557,-0.003195890923962,0.172106698155403,9.82920551300049,-0.458951205015182
1743277952421969920,0.00426118774339557,-0.00639178184792399,0.00106529693584889,0.172106698155403,9.82920551300049,-0.458951205015182
1743277952426980096,-0.003195890923962,-0.00639178184792399,-0.00532648479565978,0.1682894106679242,9.825388201716686,-0.45513391752770316
1743277952431979776,0.00426118774339557,-0.00213059387169778,0.0,0.16221102525411107,9.819309778411245,-0.44905553211389004
1743277952436979968,0.0,-0.00532648479565978,-0.00213059387169778,0.15613234999310835,9.813231065256806,-0.44297685685288735
1743277952441979904,-0.00213059387169778,-0.00532648479565978,-0.00639178184792399,0.15591533717112427,9.81008243560791,-0.44569144122991267
1743277952446980096,0.00426118774339557,-0.00532648479565978,-0.003195890923962,0.16199779230147865,9.81008243560791,-0.4578563514906217
1743277952451990016,0.003195890923962,-0.0117182666435838,-0.00106529693584889,0.16809213855620572,9.81008243560791,-0.47004504400007624
1743277952456989952,-0.00213059387169778,-0.00745707890018821,0.0,0.172106698155403,9.814215579234688,-0.476007552736381
1743277952461990144,0.003195890923962,-0.00639178184792399,-0.003195890923962,0.172106698155403,9.826372702396087,-0.4699288774753779
1743277952466990080,0.00106529693584889,-0.00852237548679113,-0.00213059387169778,0.172106698155403,9.83852924587395,-0.46385049206156453
1743277952471990016,-0.00213059387169778,-0.00639178184792399,-0.00532648479565978,0.16974645498113133,9.847147566628363,-0.46013132660231787
1743277952476999936,0.00106529693584889,-0.00639178184792399,-0.00213059387169778,0.15755776247167683,9.841053486311509,-0.46622567285704525
1743277952482000128,0.00213059387169778,-0.00213059387169778,-0.00532648479565978,0.14539285221096776,9.834971296600138,-0.47230812798739996
1743277952487000064,0.0,-0.00852237548679113,-0.00213059387169778,0.13449264866222796,9.82920551300049,-0.478074163198471
1743277952492000000,0.0,-0.00106529693584889,-0.00532648479565978,0.14664999918423374,9.82920551300049,-0.478074163198471
1743277952496999936,-0.00213059387169778,-0.00426118774339557,-0.00639178184792399,0.15880677001186025,9.82920551300049,-0.478074163198471
1743277952502000128,0.00106529693584889,-0.00852237548679113,0.003195890923962,0.17096412053386603,9.82920551300049,-0.478074163198471
1743277952507010048,0.00426118774339557,-0.00745707890018821,-0.00213059387169778,0.16658391219177013,9.82920551300049,-0.47255137723483787
1743277952512009984,-0.00213059387169778,-0.00532648479565978,-0.00426118774339557,0.16050136481075403,9.82920551300049,-0.46646882985382143
1743277952517009920,-0.00213059387169778,-0.003195890923962,-0.003195890923962,0.1544191074615604,9.82920551300049,-0.46038657250462744
1743277952522010112,-0.00106529693584889,-0.00426118774339557,-0.00106529693584889,0.152983739972115,9.82920551300049,-0.45430705388720066
1743277952527010048,0.00426118774339557,-0.00958767253905535,-0.00426118774339557,0.152983739972115,9.82920551300049,-0.44822876060224176
1743277952532019968,0.003195890923962,-0.00852237548679113,-0.00213059387169778,0.152983739972115,9.82920551300049,-0.4421380040770343
1743277952537019904,-0.00106529693584889,-0.003195890923962,-0.00426118774339557,0.152983739972115,9.82920551300049,-0.439828246831894
1743277952542020096,0.00426118774339557,-0.00532648479565978,-0.00106529693584889,0.152983739972115,9.82920551300049,-0.439828246831894
1743277952547020032,0.0,-0.00532648479565978,0.0,0.152983739972115,9.82920551300049,-0.439828246831894
1743277952552019968,-0.00213059387169778,-0.00532648479565978,-0.00958767253905535,0.152983739972115,9.82920551300049,-0.4456189343739815
1743277952557029888,0.0,-0.00532648479565978,-0.00213059387169778,0.152983739972115,9.82920551300049,-0.45780762688343596
1743277952562030080,0.0,-0.00213059387169778,-0.00852237548679113,0.152983739972115,9.82920551300049,-0.46997253714414505
1743277952567030016,-0.003195890923962,-0.003195890923962,-0.00639178184792399,0.15501512285675342,9.82920551300049,-0.4760427803138325
1743277952572029952,-0.00426118774339557,-0.00213059387169778,-0.00106529693584889,0.16109767023776952,9.82920551300049,-0.4699602329328161
1743277952577029888,0.0,0.0,-0.00213059387169778,0.16717992758696315,9.82920551300049,-0.4638779755836221
1743277952582030080,0.0,-0.00426118774339557,0.0,0.17095093887186008,9.82804974651214,-0.458951205015182
1743277952587040000,0.00213059387169778,-0.0117182666435838,-0.003195890923962,0.16485659261713298,9.821955362266287,-0.458951205015182
1743277952592039936,0.00106529693584889,-0.00426118774339557,-0.00745707890018821,0.1587741374867786,9.815872869218934,-0.458951205015182
1743277952597039872,-0.00426118774339557,-0.00426118774339557,0.0,0.15327532624488674,9.810374023698381,-0.458951205015182
1743277952602040064,-0.00106529693584889,-0.00745707890018821,-0.003195890923962,0.15935400150588946,9.816452736852819,-0.458951205015182
1743277952607040000,-0.00106529693584889,-0.00745707890018821,-0.00532648479565978,0.16543238691970255,9.82253116015826,-0.458951205015182
1743277952612050176,0.00213059387169778,-0.00639178184792399,-0.00106529693584889,0.1715232357626699,9.828622046970551,-0.458951205015182
1743277952617049856,0.00106529693584889,-0.00745707890018821,-0.00639178184792399,0.1666082748648583,9.82920551300049,-0.458951205015182
1743277952622050048,0.00639178184792399,-0.00958767253905535,-0.00213059387169778,0.1605257274838422,9.82920551300049,-0.458951205015182
1743277952627049984,0.00213059387169778,-0.00639178184792399,-0.00426118774339557,0.15444347013464857,9.82920551300049,-0.458951205015182
1743277952632049920,0.00213059387169778,-0.00639178184792399,-0.003195890923962,0.152983739972115,9.824582737076318,-0.454328457908434
1743277952637059840,-0.00106529693584889,-0.00426118774339557,-0.00532648479565978,0.152983739972115,9.818488352830466,-0.4482341116537069
1743277952642060032,0.0,-0.00852237548679113,-0.00639178184792399,0.152983739972115,9.812405859783112,-0.44215165652335253
1743277952647059968,0.00106529693584889,-0.00639178184792399,-0.00426118774339557,0.1567425523914345,9.81008243560791,-0.439828246831894
1743277952652059904,0.00213059387169778,-0.00106529693584889,-0.003195890923962,0.1628250997724506,9.81008243560791,-0.439828246831894
1743277952657059840,0.00106529693584889,-0.003195890923962,-0.003195890923962,0.16890735712164423,9.81008243560791,-0.439828246831894
1743277952662070016,-0.00106529693584889,-0.00426118774339557,-0.00532648479565978,0.16921135438435933,9.812977797428038,-0.439828246831894
1743277952667069952,0.00106529693584889,-0.00639178184792399,-0.003195890923962,0.1631291892814287,9.819060000446159,-0.439828246831894
1743277952672070144,0.00213059387169778,-0.003195890923962,-0.00426118774339557,0.1570467341510743,9.82514249349351,-0.439828246831894
1743277952677069824,0.0,-0.00745707890018821,-0.00532648479565978,0.15500165610634642,9.82920551300049,-0.4418461629661254
1743277952682070016,0.00213059387169778,-0.00639178184792399,-0.00532648479565978,0.16108033136734914,9.82920551300049,-0.44792483822712814
1743277952687069952,0.0,-0.00213059387169778,-0.003195890923962,0.16715871678116223,9.82920551300049,-0.4540032236409412
1743277952692080128,0.00106529693584889,-0.00745707890018821,-0.00213059387169778,0.17096312002365652,9.82920551300049,-0.458951205015182
1743277952697079808,0.003195890923962,-0.00426118774339557,-0.003195890923962,0.16488095492072585,9.82920551300049,-0.458951205015182
1743277952702080000,-0.00213059387169778,-0.00852237548679113,-0.00639178184792399,0.15879849979037147,9.82920551300049,-0.458951205015182
1743277952707079936,0.00213059387169778,-0.00426118774339557,-0.00426118774339557,0.15325114931244005,9.82920551300049,-0.458951205015182
1743277952712080128,0.0,-0.00745707890018821,0.0,0.15933369669345615,9.82920551300049,-0.458951205015182
1743277952717089792,0.00213059387169778,0.00106529693584889,-0.003195890923962,0.16542813537919387,9.82920551300049,-0.458951205015182
1743277952722089984,0.0,-0.00639178184792399,-0.003195890923962,0.17151068276020998,9.82920551300049,-0.458951205015182
1743277952727089920,0.00106529693584889,-0.00213059387169778,-0.003195890923962,0.172106698155403,9.82920551300049,-0.4534650462680056
1743277952732090112,-0.00213059387169778,-0.00213059387169778,-0.00213059387169778,0.172106698155403,9.82920551300049,-0.4473825911376512
1743277952737090048,-0.00213059387169778,-0.00426118774339557,-0.00532648479565978,0.172106698155403,9.82920551300049,-0.44130013600729684
1743277952742099968,0.00532648479565978,-0.00106529693584889,-0.00106529693584889,0.16749591924515453,9.82920551300049,-0.44443902574214245
1743277952747100160,0.0,-0.00426118774339557,-0.00745707890018821,0.16142883082090237,9.82920551300049,-0.45050611416639463
1743277952752100096,0.00106529693584889,-0.00213059387169778,-0.00213059387169778,0.15536203169134907,9.82920551300049,-0.4565729132959479
1743277952757100032,0.003195890923962,-0.00639178184792399,-0.00213059387169778,0.14928554420369328,9.82920551300049,-0.4626494007836037
1743277952762129920,0.00213059387169778,-0.00106529693584889,-0.00213059387169778,0.14316674284486705,9.82920551300049,-0.4687682021424299
1743277952767139840,0.00213059387169778,-0.00106529693584889,-0.00532648479565978,0.13707230415912902,9.82920551300049,-0.474862640828168
1743277952772140032,0.00106529693584889,-0.00958767253905535,-0.003195890923962,0.13672993563117072,9.82920551300049,-0.4752050093561263
1743277952777139968,0.00106529693584889,-0.00745707890018821,-0.003195890923962,0.14280822891612993,9.82920551300049,-0.46912671607116707
1743277952782139904,-0.00106529693584889,-0.00426118774339557,-0.003195890923962,0.14888681204388562,9.82920551300049,-0.4630481329434114
1743277952787139840,0.00106529693584889,-0.00852237548679113,-0.00532648479565978,0.15496639751057706,9.82920551300049,-0.458951205015182
1743277952792150016,0.00106529693584889,-0.00106529693584889,-0.00532648479565978,0.16106112622813726,9.82920551300049,-0.458951205015182
1743277952797149952,-0.00106529693584889,-0.00106529693584889,-0.00532648479565978,0.16714338357733088,9.82920551300049,-0.458951205015182
1743277952802149888,-0.00213059387169778,-0.00213059387169778,-0.00852237548679113,0.1709874823272494,9.828086290195333,-0.4578319891870284
1743277952807149824,0.00213059387169778,-0.00426118774339557,-0.00106529693584889,0.16490531722431873,9.822004087177213,-0.4517498240840977
1743277952812150016,-0.00213059387169778,0.00106529693584889,-0.00639178184792399,0.15882286209396437,9.815921594129861,-0.4456673689537433
1743277952817159936,-0.00106529693584889,-0.00426118774339557,-0.00213059387169778,0.15323896797589595,9.81033766520274,-0.4403387028394559
1743277952822160128,0.0,0.0,-0.00213059387169778,0.15932151535691205,9.816420250501329,-0.45250379760148846
1743277952827159808,0.00106529693584889,-0.00852237548679113,-0.00426118774339557,0.16540377270610568,9.822502545766287,-0.46466831229987604
1743277952832160000,0.0,-0.00852237548679113,-0.00639178184792399,0.17148632008712178,9.828585131064877,-0.4768334070619086
1743277952837160192,-0.00106529693584889,-0.00532648479565978,-0.00532648479565978,0.16664461168439576,9.823743392479757,-0.47261207672746347
1743277952842170112,0.00106529693584889,-0.00426118774339557,-0.00213059387169778,0.16055026542966866,9.817649008233905,-0.46651773047273604
1743277952847170048,-0.00213059387169778,-0.00426118774339557,-0.003195890923962,0.15446781029931428,9.811566515186554,-0.4604352753423814
1743277952852169984,0.0,-0.00213059387169778,-0.003195890923962,0.152983739972115,9.814680628785663,-0.46354936952875414
1743277952857170176,0.00106529693584889,-0.003195890923962,-0.00532648479565978,0.152983739972115,9.820763214084252,-0.4696319169097705
1743277952862169856,0.00106529693584889,-0.00532648479565978,-0.00639178184792399,0.152983739972115,9.82684550934921,-0.4757141742589645
1743277952867170048,0.0,-0.00532648479565978,-0.00639178184792399,0.152983739972115,9.82920551300049,-0.4743516047569611
1743277952872179968,-0.00106529693584889,-0.00213059387169778,0.0,0.152983739972115,9.82920551300049,-0.4682571660712231
1743277952877180160,0.0,0.0,0.0,0.152983739972115,9.82920551300049,-0.46217461869020665
1743277952882180096,0.00106529693584889,-0.00532648479565978,-0.00213059387169778,0.152983739972115,9.82920551300049,-0.4618081854600746
1743277952887180032,-0.00106529693584889,-0.00639178184792399,-0.00639178184792399,0.152983739972115,9.82920551300049,-0.4678867685878303
1743277952892179968,0.0,-0.00532648479565978,-0.00426118774339557,0.152983739972115,9.82920551300049,-0.47396506187278953
1743277952897190144,-0.00213059387169778,-0.00213059387169778,-0.00852237548679113,0.152983739972115,9.831188374041254,-0.47410826805790185
1743277952902190080,0.0,-0.00745707890018821,-0.00426118774339557,0.152983739972115,9.837270365980096,-0.46194375335951426
1743277952907190016,0.00213059387169778,-0.00532648479565978,-0.00213059387169778,0.152983739972115,9.843352647938104,-0.44977865859748173
1743277952912189952,0.003195890923962,-0.00639178184792399,-0.00213059387169778,0.15409077464847218,9.847220650349863,-0.4409352815082512
1743277952917190144,0.003195890923962,-0.00639178184792399,-0.00213059387169778,0.16017322977882656,9.84113846063849,-0.44701773663860556
1743277952922200064,0.003195890923962,-0.00639178184792399,-0.00532648479565978,0.16626757603355363,9.835044380321635,-0.45311208289333266
1743277952927200000,0.0,-0.00532648479565978,-0.00745707890018821,0.17186336145634365,9.828962174784511,-0.458951205015182
1743277952932199936,0.00213059387169778,-0.00852237548679113,-0.00745707890018821,0.16578110410715002,9.822879879519553,-0.458951205015182
1743277952937200128,0.003195890923962,-0.00532648479565978,-0.00213059387169778,0.15969855672613392,9.816797294220963,-0.458951205015182
1743277952942200064,-0.00106529693584889,-0.00106529693584889,-0.003195890923962,0.1536162993769403,9.810714998956003,-0.458951205015182
1743277952947200000,-0.00213059387169778,-0.00426118774339557,-0.00213059387169778,0.152983739972115,9.81008243560791,-0.458951205015182
1743277952952209920,-0.00213059387169778,-0.00426118774339557,-0.00426118774339557,0.152983739972115,9.81008243560791,-0.458951205015182
1743277952957210112,0.003195890923962,-0.00745707890018821,-0.00532648479565978,0.152983739972115,9.81008243560791,-0.458951205015182
1743277952962210048,0.00532648479565978,-0.00745707890018821,-0.00532648479565978,0.152983739972115,9.814656265960702,-0.458951205015182
1743277952967209984,0.00106529693584889,-0.00639178184792399,-0.003195890923962,0.152983739972115,9.820738851259291,-0.458951205015182
1743277952972209920,-0.003195890923962,-0.00532648479565978,-0.003195890923962,0.152983739972115,9.82682114652425,-0.458951205015182
1743277952977220096,0.00213059387169778,-0.0138488598167896,-0.00213059387169778,0.152983739972115,9.832915671925608,-0.4552408841834719
1743277952982220032,-0.00106529693584889,-0.003195890923962,-0.003195890923962,0.152983739972115,9.838997571622214,-0.4491587190805413
1743277952987219968,0.0,-0.00213059387169778,-0.00213059387169778,0.152983739972115,9.845079761333587,-0.4430762639501869
1743277952992219904,0.00213059387169778,-0.0117182666435838,-0.00745707890018821,0.1558179309413735,9.845493569424564,-0.4426624378011525
1743277952997220096,0.00213059387169778,-0.00745707890018821,-0.00426118774339557,0.1619004783223896,9.839411287466556,-0.4487449851821686
1743277953002230016,-0.00106529693584889,-0.00532648479565978,0.0,0.16799491700812733,9.833317114722725,-0.4548394238679063
1743277953007229952,0.00106529693584889,-0.00852237548679113,-0.00426118774339557,0.17013596181119367,9.827234764371044,-0.458951205015182
1743277953012229888,0.00106529693584889,-0.00745707890018821,-0.00532648479565978,0.16405379670826303,9.821152561352923,-0.458951205015182
1743277953017230080,0.00213059387169778,-0.00852237548679113,-0.00213059387169778,0.15797134157790865,9.81507006830557,-0.458951205015182
1743277953022230016,-0.00106529693584889,-0.00852237548679113,-0.00426118774339557,0.152983739972115,9.81008243560791,-0.458951205015182
1743277953027239936,0.00106529693584889,-0.00532648479565978,-0.00532648479565978,0.152983739972115,9.81008243560791,-0.458951205015182
1743277953032239872,0.00106529693584889,-0.00426118774339557,-0.00426118774339557,0.152983739972115,9.81008243560791,-0.458951205015182
1743277953037240064,0.00532648479565978,-0.003195890923962,-0.00213059387169778,0.152983739972115,9.81008243560791,-0.458951205015182
1743277953042240000,-0.00213059387169778,-0.00426118774339557,-0.003195890923962,0.152983739972115,9.81008243560791,-0.458951205015182
1743277953047239936,0.00106529693584889,-0.00426118774339557,-0.003195890923962,0.152983739972115,9.81008243560791,-0.458951205015182
1743277953052239872,-0.00106529693584889,-0.00639178184792399,-0.00106529693584889,0.152983739972115,9.81008243560791,-0.458951205015182
1743277953057250048,0.00213059387169778,-0.00106529693584889,-0.003195890923962,0.152983739972115,9.81008243560791,-0.458951205015182
1743277953062249984,0.0,-0.00532648479565978,-0.00426118774339557,0.152983739972115,9.81008243560791,-0.458951205015182
1743277953067249920,0.003195890923962,-0.00852237548679113,-0.00426118774339557,0.152983739972115,9.81008243560791,-0.458951205015182
1743277953072249856,0.0,-0.00426118774339557,-0.00106529693584889,0.152983739972115,9.814656265960702,-0.458951205015182
1743277953077250048,0.003195890923962,-0.00639178184792399,-0.00426118774339557,0.152983739972115,9.820738851259291,-0.458951205015182
1743277953082259968,0.003195890923962,-0.00745707890018821,-0.00639178184792399,0.152983739972115,9.82683332793673,-0.458951205015182
1743277953087259904,0.00106529693584889,-0.00639178184792399,-0.00745707890018821,0.152983739972115,9.825495169039266,-0.4552408841834719
1743277953092259840,0.003195890923962,-0.00639178184792399,-0.00213059387169778,0.152983739972115,9.819412966021146,-0.4491587190805413
1743277953097260032,0.0,-0.00958767253905535,0.0,0.152983739972115,9.813330472973794,-0.4430762639501869
1743277953102260224,0.00106529693584889,-0.0117182666435838,-0.003195890923962,0.155818220973196,9.812916934278666,-0.44266272783297494
1743277953107269888,0.00106529693584889,-0.00426118774339557,-0.00213059387169778,0.1619126596589337,9.819011410956106,-0.44875716651871267
1743277953112270080,0.003195890923962,-0.00426118774339557,-0.00106529693584889,0.1679952070399498,9.825093996254695,-0.4548397138997288
1743277953117270016,0.0,-0.00852237548679113,-0.00532648479565978,0.17013596181119367,9.82920551300049,-0.45698046867097264
1743277953122270208,0.0,-0.00958767253905535,-0.00213059387169778,0.1640535066808393,9.82920551300049,-0.45089801354061826
1743277953127269888,0.00106529693584889,-0.00745707890018821,-0.00532648479565978,0.15797134157790865,9.82920551300049,-0.4448158484376876
1743277953132270080,0.00213059387169778,-0.0106529695913196,-0.003195890923962,0.152983739972115,9.82920551300049,-0.439828246831894
1743277953137280000,-0.00106529693584889,-0.003195890923962,-0.00106529693584889,0.152983739972115,9.82920551300049,-0.439828246831894
1743277953142280192,0.00106529693584889,-0.00426118774339557,-0.00426118774339557,0.152983739972115,9.82920551300049,-0.439828246831894
1743277953147279872,0.003195890923962,-0.00639178184792399,-0.00106529693584889,0.152983739972115,9.829424474150217,-0.44026618824171826
1743277953152280064,0.003195890923962,-0.00639178184792399,-0.00426118774339557,0.152983739972115,9.83550666386159,-0.45243109850242735
1743277953157280000,0.00106529693584889,-0.003195890923962,-0.00852237548679113,0.152983739972115,9.841588563558195,-0.464595428708289
1743277953162290176,-0.00426118774339557,-0.00639178184792399,-0.00639178184792399,0.152983739972115,9.847682933889818,-0.476784701272591
1743277953167289856,0.00106529693584889,-0.00426118774339557,0.00106529693584889,0.152983739972115,9.842890357386842,-0.47263664659064647
1743277953172290048,0.003195890923962,-0.00745707890018821,-0.00639178184792399,0.152983739972115,9.836808075428834,-0.46655409920963004
1743277953177289984,0.0,-0.00745707890018821,-0.00213059387169778,0.152983739972115,9.830726083489992,-0.4604718418604361
1743277953182290176,-0.003195890923962,0.0,-0.00426118774339557,0.15754565050787708,9.82920551300049,-0.458951205015182
1743277953187299840,0.00213059387169778,-0.003195890923962,-0.00213059387169778,0.1636400891936148,9.82920551300049,-0.458951205015182
1743277953192300032,0.0,-0.00532648479565978,-0.00213059387169778,0.1697226365746309,9.82920551300049,-0.458951205015182
1743277953197299968,-0.00106529693584889,-0.003195890923962,-0.00639178184792399,0.16841091265750063,9.825509704463686,-0.458951205015182
1743277953202300160,-0.00213059387169778,-0.003195890923962,-0.00426118774339557,0.16233232952974525,9.81943108344307,-0.458951205015182
1743277953207299840,0.00106529693584889,-0.00532648479565978,-0.003195890923962,0.15625403624478637,9.813352752267056,-0.458951205015182
1743277953212310016,-0.00106529693584889,-0.00213059387169778,0.0,0.152983739972115,9.812904752866187,-0.458951205015182
1743277953217309952,0.0,-0.00106529693584889,-0.00426118774339557,0.152983739972115,9.818987048131145,-0.458951205015182
1743277953222310144,-0.003195890923962,-0.00532648479565978,-0.00958767253905535,0.152983739972115,9.825069633429734,-0.458951205015182
1743277953227309824,-0.00106529693584889,-0.00106529693584889,-0.00426118774339557,0.15493011401273146,9.82920551300049,-0.458951205015182
1743277953232310016,0.00106529693584889,-0.0106529695913196,-0.00213059387169778,0.16101256914308584,9.82920551300049,-0.458951205015182
1743277953237309952,0.00213059387169778,0.0,-0.003195890923962,0.16709473424601648,9.82920551300049,-0.458951205015182
1743277953242320128,0.0,-0.00532648479565978,-0.00745707890018821,0.1710267610446013,9.82920551300049,-0.458951205015182
1743277953247320064,0.00213059387169778,-0.00745707890018821,-0.00426118774339557,0.164959961915048,9.82920551300049,-0.458951205015182
1743277953252320000,-0.00213059387169778,-0.00958767253905535,-0.00426118774339557,0.15889287349079584,9.82920551300049,-0.458951205015182
1743277953257319936,-0.003195890923962,-0.00532648479565978,-0.00426118774339557,0.1531417066904655,9.82920551300049,-0.4587932382968315
1743277953262360064,0.00106529693584889,-0.00213059387169778,-0.003195890923962,0.1592690762793267,9.82920551300049,-0.45266586870797026
1743277953267360000,0.00426118774339557,-0.00958767253905535,-0.00426118774339557,0.16534746169313982,9.82920551300049,-0.44658748329415715
1743277953272370176,0.003195890923962,-0.00958767253905535,-0.00213059387169778,0.17143831053610717,9.82920551300049,-0.4404966344511898
1743277953277369856,0.00532648479565978,-0.00532648479565978,-0.00426118774339557,0.1666933362915815,9.823792117390685,-0.4506549705595373
1743277953282370048,-0.00213059387169778,-0.00213059387169778,-0.00532648479565978,0.16061088116122713,9.817709624343333,-0.46281988082024633
1743277953287369984,0.0,-0.00745707890018821,-0.00745707890018821,0.1545287160582965,9.81162742132521,-0.474984211026108
1743277953292370176,0.00426118774339557,-0.00745707890018821,-0.00106529693584889,0.15752128783478891,9.814620011756892,-0.478074163198471
1743277953297380096,0.0,-0.00213059387169778,-0.00639178184792399,0.1636157265205266,9.82071448843433,-0.478074163198471
1743277953302380032,0.00532648479565978,-0.00745707890018821,-0.00213059387169778,0.1696982739015427,9.82679707373292,-0.478074163198471
1743277953307379968,0.003195890923962,-0.00745707890018821,-0.00213059387169778,0.16843292077908226,9.82920551300049,-0.47440038582215005
1743277953312380160,0.00213059387169778,-0.00639178184792399,-0.00639178184792399,0.16235046564872788,9.82920551300049,-0.46831793069179534
1743277953317379840,-0.00213059387169778,-0.00639178184792399,-0.00639178184792399,0.1562683005457972,9.82920551300049,-0.46223576558886437
1743277953322390016,-0.00213059387169778,-0.003195890923962,-0.00426118774339557,0.152983739972115,9.82920551300049,-0.46176132334317493
1743277953327389952,0.00213059387169778,-0.00958767253905535,-0.00106529693584889,0.152983739972115,9.82920551300049,-0.4678435806923689
1743277953332390144,0.0,-0.00639178184792399,-0.00106529693584889,0.152983739972115,9.82920551300049,-0.47392612807338536
1743277953337389824,0.00213059387169778,-0.003195890923962,-0.00426118774339557,0.15491670158183274,9.82920551300049,-0.47614120158875317
1743277953342390016,0.00106529693584889,-0.00532648479565978,-0.003195890923962,0.16099528470958813,9.82920551300049,-0.47006261846099745
1743277953347389952,0.0,-0.00639178184792399,0.00213059387169778,0.167073577994547,9.82920551300049,-0.46398432517603827
1743277953352400128,0.00106529693584889,-0.00852237548679113,-0.00639178184792399,0.17104837203517947,9.82814718028284,-0.458951205015182
1743277953357400064,-0.003195890923962,-0.00426118774339557,0.00106529693584889,0.16496611468598585,9.822064885017882,-0.458951205015182
1743277953362400000,0.0,-0.003195890923962,-0.00426118774339557,0.15888356730496975,9.815982299719293,-0.458951205015182
1743277953367399936,0.003195890923962,-0.00639178184792399,-0.00106529693584889,0.152983739972115,9.810264863994654,-0.4591336322647048
1743277953372400128,0.0,-0.00426118774339557,-0.00532648479565978,0.152983739972115,9.816347357042007,-0.46521608739505954
1743277953377410048,0.0,-0.00426118774339557,-0.00639178184792399,0.152983739972115,9.822441741287859,-0.471310433649787
1743277953382409984,0.00213059387169778,-0.00639178184792399,-0.00106529693584889,0.152983739972115,9.82852423433521,-0.47739288878014163
1743277953387409920,-0.00106529693584889,-0.00426118774339557,-0.00106529693584889,0.152983739972115,9.82920551300049,-0.4672722180020868
1743277953392410112,0.0,-0.003195890923962,-0.00426118774339557,0.152983739972115,9.82920551300049,-0.45510712324005426
1743277953397409792,0.00426118774339557,-0.00213059387169778,-0.00106529693584889,0.152983739972115,9.82920551300049,-0.44294260854166667
1743277953402419968,-0.00106529693584889,-0.003195890923962,-0.00532648479565978,0.152983739972115,9.82466800567044,-0.439828246831894
1743277953407419904,0.0,-0.003195890923962,-0.00106529693584889,0.152983739972115,9.818585802652319,-0.439828246831894
1743277953412420096,0.00106529693584889,-0.00852237548679113,-0.00213059387169778,0.152983739972115,9.812503309604965,-0.439828246831894
1743277953417420032,0.003195890923962,-0.003195890923962,-0.00639178184792399,0.152983739972115,9.81008243560791,-0.439828246831894
1743277953422419968,-0.00106529693584889,-0.00532648479565978,-0.00426118774339557,0.152983739972115,9.81008243560791,-0.439828246831894
1743277953427419904,-0.00106529693584889,0.00213059387169778,-0.00639178184792399,0.152983739972115,9.81008243560791,-0.439828246831894
1743277953432430080,0.00106529693584889,-0.00639178184792399,-0.00426118774339557,0.152983739972115,9.812880390041226,-0.439828246831894
1743277953437430016,0.00106529693584889,0.0,-0.00426118774339557,0.152983739972115,9.818962685306184,-0.439828246831894
1743277953442429952,-0.00426118774339557,-0.00213059387169778,-0.003195890923962,0.152983739972115,9.825045270604774,-0.439828246831894
1743277953447429888,0.00426118774339557,-0.00426118774339557,-0.00639178184792399,0.15490452818438064,9.827284712814356,-0.44174903504415963
1743277953452430080,-0.00213059387169778,-0.00639178184792399,-0.00106529693584889,0.160983111312136,9.821206091793739,-0.44782761817191497
1743277953457440000,0.003195890923962,-0.00639178184792399,-0.00852237548679113,0.167073577994547,9.815115587144387,-0.453918084854326
1743277953462439936,0.0,-0.00745707890018821,-0.00639178184792399,0.17106055337172357,9.81112858691308,-0.4599973497988615
1743277953467439872,-0.00106529693584889,-0.00426118774339557,-0.003195890923962,0.16497829602252995,9.817210882178038,-0.46607960714805546
1743277953472440064,0.003195890923962,-0.00426118774339557,-0.00106529693584889,0.15889574864151385,9.823293467476628,-0.47216215452907184
1743277953477440000,0.00106529693584889,-0.0106529695913196,-0.00106529693584889,0.152983739972115,9.829034867112355,-0.4777328735497443
1743277953482449920,0.003195890923962,-0.00958767253905535,-0.00426118774339557,0.152983739972115,9.822936598324317,-0.46553641200434676
1743277953487449856,0.003195890923962,-0.00426118774339557,-0.00213059387169778,0.152983739972115,9.816850518528286,-0.45336432829100104
1743277953492450048,0.00213059387169778,-0.00745707890018821,-0.00106529693584889,0.152983739972115,9.810764148518162,-0.4411916641530827
1743277953497450240,-0.00213059387169778,-0.00106529693584889,-0.003195890923962,0.15838500260212945,9.81008243560791,-0.4452295094619084
1743277953502449920,0.0,-0.00426118774339557,-0.00426118774339557,0.16446725995132308,9.81008243560791,-0.4513117668111021
1743277953507460096,0.0,-0.003195890923962,-0.00639178184792399,0.17056198866888328,9.81008243560791,-0.45740649552866225
1743277953512460032,0.00106529693584889,-0.00532648479565978,-0.00213059387169778,0.172106698155403,9.814617054426694,-0.458951205015182
1743277953517460224,0.00106529693584889,-0.00532648479565978,-0.00745707890018821,0.172106698155403,9.82069567544731,-0.458951205015182
1743277953522459904,0.00106529693584889,-0.00532648479565978,-0.00213059387169778,0.172106698155403,9.826774006623323,-0.458951205015182
1743277953527460096,-0.00213059387169778,-0.00639178184792399,-0.00426118774339557,0.16845722773315783,9.825556019828063,-0.458951205015182
1743277953532460032,-0.00106529693584889,-0.003195890923962,-0.00532648479565978,0.1623749703839642,9.819473724563103,-0.458951205015182
1743277953537470208,-0.00106529693584889,-0.00426118774339557,-0.00213059387169778,0.156280241666404,9.813378957852034,-0.458951205015182
1743277953542469888,0.003195890923962,-0.00426118774339557,0.0,0.15576945337699075,9.812868166378452,-0.458951205015182
1743277953547470080,-0.00213059387169778,-0.00639178184792399,-0.00532648479565978,0.1618519085073451,9.818950659425806,-0.458951205015182
1743277953552470016,0.00106529693584889,-0.00745707890018821,0.0,0.16793407361027576,9.825032862443926,-0.458951205015182
1743277953557470208,0.00532648479565978,-0.003195890923962,-0.00106529693584889,0.17019805441166358,9.82920551300049,-0.45322527378396366
1743277953562479872,0.00426118774339557,-0.00852237548679113,-0.003195890923962,0.16410749541588587,9.82920551300049,-0.4349535967966302
1743277953567480064,0.00426118774339557,-0.0117182666435838,-0.003195890923962,0.15802882015488315,9.82920551300049,-0.41671757101362167
1743277953572480000,0.0,-0.00745707890018821,-0.00958767253905535,0.152983739972115,9.830239431328751,-0.401582330465317
1743277953577480192,0.00213059387169778,-0.00639178184792399,-0.00639178184792399,0.152983739972115,9.836321713286761,-0.401582330465317
1743277953582479872,0.003195890923962,-0.00958767253905535,-0.00426118774339557,0.152983739972115,9.842403705225603,-0.401582330465317
1743277953587490048,-0.00532648479565978,-0.003195890923962,-0.00532648479565978,0.15315427609726512,9.847816033658766,-0.4019234027156173
1743277953592489984,0.00426118774339557,-0.00426118774339557,-0.003195890923962,0.15923644120019578,9.82956972792592,-0.4140877329214789
1743277953597490176,-0.00213059387169778,0.0,-0.00106529693584889,0.16531889633055016,9.811322552119842,-0.4262526431821879
1743277953602489856,-0.00213059387169778,-0.003195890923962,-0.00106529693584889,0.1714010614334808,9.793076246386997,-0.4384169733880496
1743277953607490048,0.00106529693584889,-0.00532648479565978,-0.00426118774339557,0.1613528982415502,9.801713225166555,-0.439828246831894
1743277953612489984,0.003195890923962,-0.00426118774339557,-0.003195890923962,0.1491883835431626,9.813877815696474,-0.439828246831894
1743277953617500160,0.00106529693584889,-0.00213059387169778,-0.003195890923962,0.1369989261080419,9.826067349118613,-0.439828246831894
1743277953622499840,-0.00106529693584889,-0.00639178184792399,-0.00639178184792399,0.1383710255448343,9.82920551300049,-0.44433849058790204
1743277953627500032,0.00106529693584889,-0.00426118774339557,-0.00213059387169778,0.14444960867259,9.82920551300049,-0.4504170737156574
1743277953632499968,0.0,-0.003195890923962,-0.00426118774339557,0.1505279019575492,9.82920551300049,-0.4564953670006163
1743277953637500160,0.00106529693584889,-0.00426118774339557,0.00106529693584889,0.15660884772127198,9.82920551300049,-0.458951205015182
1743277953642509824,0.00106529693584889,-0.00639178184792399,-0.00426118774339557,0.1627032864070097,9.82920551300049,-0.458951205015182
1743277953647510016,0.0,0.0,-0.00532648479565978,0.1687858337880258,9.82920551300049,-0.458951205015182
1743277953652509952,0.0,-0.00958767253905535,-0.00213059387169778,0.16934534705412013,9.82920551300049,-0.458951205015182
1743277953657510144,-0.00213059387169778,-0.00532648479565978,-0.003195890923962,0.16326289192376578,9.82920551300049,-0.458951205015182
1743277953662509824,0.00426118774339557,-0.00213059387169778,-0.00213059387169778,0.15718072682083511,9.82920551300049,-0.458951205015182
1743277953667520000,0.00106529693584889,-0.003195890923962,0.00106529693584889,0.152983739972115,9.82920551300049,-0.460848883229658
1743277953672519936,-0.00213059387169778,-0.00532648479565978,0.00639178184792399,0.152983739972115,9.82920551300049,-0.46693114057885193
1743277953677520128,-0.00213059387169778,-0.00532648479565978,-0.00639178184792399,0.152983739972115,9.82920551300049,-0.47301368795986837
1743277953682519808,0.003195890923962,-0.0106529695913196,-0.00532648479565978,0.15400485614411016,9.830226584614225,-0.47501081468248546
1743277953687520000,0.00106529693584889,-0.00745707890018821,0.00426118774339557,0.16008343927186552,9.83630490249196,-0.45677506529921874
1743277953692529920,0.00532648479565978,-0.00106529693584889,0.0,0.16617390595427653,9.842395103405792,-0.4385036652519851
1743277953697530112,0.003195890923962,-0.003195890923962,-0.00213059387169778,0.17196081214869638,9.848181757078045,-0.420705288648605
1743277953702529792,-0.00639178184792399,0.0,-0.00426118774339557,0.16587855479950275,9.842099765139203,-0.420705288648605
1743277953707529984,0.00532648479565978,-0.003195890923962,0.00426118774339557,0.15979600741848665,9.836017483181193,-0.420705288648605
1743277953712529920,0.003195890923962,-0.00958767253905535,-0.00532648479565978,0.15371375006929303,9.82993549124235,-0.420705288648605
1743277953717530112,0.00106529693584889,-0.00958767253905535,-0.00639178184792399,0.1583362772559531,9.818500371699187,-0.420705288648605
1743277953722539776,-0.003195890923962,-0.00639178184792399,-0.00426118774339557,0.1644307159416908,9.806311418344308,-0.420705288648605
1743277953727539968,0.00106529693584889,-0.00958767253905535,0.00106529693584889,0.17051326332270691,9.794146247747129,-0.420705288648605
1743277953732539904,0.00213059387169778,-0.00958767253905535,-0.00852237548679113,0.172106698155403,9.799936923053579,-0.42968279752257954
1743277953737540096,-0.00106529693584889,-0.00852237548679113,-0.00213059387169778,0.172106698155403,9.812101909148284,-0.44184770778328863
1743277953742539776,-0.003195890923962,-0.00639178184792399,-0.00639178184792399,0.172106698155403,9.824266315184525,-0.45401203798915024
1743277953747549952,-0.003195890923962,-0.00532648479565978,0.0,0.17572489434950744,9.83282354848875,-0.4517148182657747
1743277953752549888,0.00106529693584889,-0.003195890923962,-0.00213059387169778,0.18179555539331613,9.83889393989801,-0.4395735056390189
1743277953757550080,0.0,-0.00532648479565978,-0.00745707890018821,0.18786650591597864,9.844964620773265,-0.4274316140550066
1743277953762579968,-0.00213059387169778,-0.003195890923962,-0.003195890923962,0.20497552955621598,9.851076823806098,-0.38221689007570064
1743277953767580160,0.00532648479565978,-0.00958767253905535,0.00426118774339557,0.23538782416648757,9.85715931685345,-0.297062475594115
1743277953772579840,-0.00106529693584889,-0.00958767253905535,-0.003195890923962,0.2657986686387365,9.86324151987157,-0.21191212149849553
1743277953777580032,-0.00106529693584889,-0.0106529695913196,-0.00639178184792399,0.38238366984189603,9.86557738689201,-0.012485008679662513
1743277953782579968,0.00106529693584889,-0.0106529695913196,-0.003195890923962,0.6925789747506602,9.85949509162705,0.44368450578604757
1743277953787590144,0.0,-0.0553954392671585,0.0,1.0034103198154054,9.853400324915981,0.9007893733165626
1743277953792589824,-0.00426118774339557,-0.142749801278114,0.00639178184792399,1.2187037537396581,9.852365953392352,1.2267211542052114
1743277953797590016,-0.00639178184792399,-0.213059395551682,-0.012783563695848,0.9571580219871741,9.876695622245782,0.8982684254980764
1743277953802589952,-0.00426118774339557,-0.208798199892044,0.0117182666435838,0.6956247614215942,9.901024130996749,0.5698313582790545
1743277953807589888,-0.0170447509735823,-0.17364339530468,-0.0149141578003764,0.43328088554164657,9.923750042843073,0.24258569272771896
1743277953812599808,0.00213059387169778,-0.101203210651875,-0.037285391241312,0.13484335237034634,9.875025874616972,-0.031489594968590745
1743277953817600000,-0.00852237548679113,-0.0628525167703629,-0.00426118774339557,-0.16301187751917484,9.82639677567642,-0.30503011434074156
1743277953822599936,-0.0170447509735823,-0.0564607381820679,0.00532648479565978,-0.4608529048896282,9.777769995498932,-0.5785575905830349
1743277953827600128,-0.0191753450781107,-0.0415465831756592,0.00745707890018821,-0.5025375071313762,9.64900786099885,-0.643977095572223
1743277953832600064,-0.0170447509735823,-0.0671137049794197,-0.0170447509735823,-0.5086200545123927,9.509109005812471,-0.680472379858321
1743277953837609984,0.0106529695913196,-0.0681790038943291,0.0213059391826391,-0.5147144931981308,9.368936650098593,-0.7170390119727486
1743277953842609920,0.0181100480258465,-0.105464398860931,0.0564607381820679,-0.4133588767162665,9.417062384279319,-0.784868203554973
1743277953847610112,-0.0245018284767866,-0.172578096389771,-0.0553954392671585,-0.27346234473317843,9.532629145507048,-0.8639401771250781
1743277953852610048,-0.0319589078426361,-0.203471720218658,-0.0713749006390572,-0.13356581275009033,9.648195906734776,-0.9430121506951831
1743277953857609984,0.0340895019471645,-0.167251631617546,0.10759499669075,-0.0692903763266638,9.810567993258136,-1.0976967441105279
1743277953862620160,0.0330242030322552,-0.152337461709976,0.0788319706916809,-0.05710091295505726,10.005599616168142,-1.3049176344881088
1743277953867620096,-0.036220096051693,-0.135292708873749,-0.0980073139071465,-0.04493639233233143,10.200232154668463,-1.511714498107993
1743277953872620032,-0.0159794539213181,-0.0905502364039421,-0.0532648488879204,0.002813267113620177,10.222423960277204,-1.5488084217501732
1743277953877619968,0.0340895019471645,-0.0575260370969772,0.0639178156852722,0.0940457874970204,10.033876880001538,-1.378507685122541
1743277953882620160,0.0319589078426361,-0.012783563695848,0.0671137049794197,0.18528265829386698,9.845320808877542,-1.208198827721621
1743277953887620096,-0.00745707890018821,0.0181100480258465,-0.0298283156007528,0.248598575592041,9.72749583733528,-0.9969523438856892
1743277953892630016,-0.0181100480258465,0.0724401921033859,-0.0436771735548973,0.248598575592041,9.770158596416621,-0.6922157797795769
1743277953897629952,0.00106529693584889,0.0948114320635796,0.00426118774339557,0.248598575592041,9.812734056619098,-0.38810278435418044
1743277953902630144,-0.00213059387169778,0.025567127391696,-0.003195890923962,0.2446077959092923,9.844336884246129,-0.15281698275522745
1743277953907630080,-0.012783563695848,-0.0106529695913196,-0.0245018284767866,0.2202791212793729,9.820008375495162,-0.2683781718442987
1743277953912630016,-0.00532648479565978,-0.0106529695913196,-0.0149141578003764,0.1959492865390806,9.795678706641732,-0.3839448714569067
1743277953917639936,0.00532648479565978,-0.0117182666435838,0.0159794539213181,0.17197299348524048,9.77210369183006,-0.49692974163538384
1743277953922640128,0.003195890923962,-0.00745707890018821,0.00745707890018821,0.16589044610422438,9.784268862427238,-0.48476463739395803
1743277953927640064,-0.00532648479565978,-0.00958767253905535,-0.0149141578003764,0.15980818875503075,9.796433452957157,-0.47260011321662915
1743277953932640000,-0.00532648479565978,-0.00852237548679113,-0.00426118774339557,0.15372564137401465,9.808598623554335,-0.46043500897520334
1743277953937639936,0.00745707890018821,-0.00852237548679113,0.00426118774339557,0.14764346501907186,9.820762785771766,-0.458951205015182
1743277953942650112,-0.00213059387169778,-0.00639178184792399,-0.00745707890018821,0.1415488287369207,9.832951830378473,-0.458951205015182
1743277953947650048,-0.00106529693584889,-0.00852237548679113,-0.00639178184792399,0.13546666363398974,9.845115933093199,-0.458951205015182
1743277953952649984,-0.00426118774339557,-0.0106529695913196,-0.0106529695913196,0.1428140641487331,9.83937452179859,-0.45447456383522855
1743277953957649920,0.00639178184792399,-0.00852237548679113,0.00426118774339557,0.15497857884712068,9.827210234594789,-0.4483923064860349
1743277953962650112,-0.00532648479565978,-0.00745707890018821,0.00426118774339557,0.16714367360915322,9.815045367338191,-0.4423097591050188
1743277953967660032,-0.00639178184792399,-0.00426118774339557,-0.00745707890018821,0.13239039169815256,9.806471841384479,-0.4470493902633693
1743277953972659968,-0.00745707890018821,-0.00532648479565978,-0.00958767253905535,0.06552594768904471,9.800393220363862,-0.4592065565188804
1743277953977659904,0.0,-0.00745707890018821,-0.00532648479565978,-0.0013353080478902546,9.794314889187849,-0.4713631430887985
1743277953982660096,-0.00106529693584889,-0.00745707890018821,-0.00426118774339557,-0.11454174602570624,9.796409090132196,-0.5298463233959058
1743277953987660032,-0.00958767253905535,-0.0213059391826391,-0.0159794539213181,-0.28484504066820576,9.808573680662112,-0.645409279383176
1743277953992659968,-0.0138488598167896,-0.0490036569535732,-0.00958767253905535,-0.4551564562059721,9.820738851259291,-0.7609777459782374
1743277953997669888,-0.00852237548679113,-0.0873543471097946,-0.00426118774339557,-0.4973825019665535,9.8422334408324,-0.841410577297211
1743277954002670080,-0.00532648479565978,-0.132096812129021,0.00639178184792399,-0.24799793137307863,9.88481123458194,-0.841410577297211
1743277954007670016,-0.00426118774339557,-0.142749801278114,0.0,0.0013747479095724824,9.927386998110533,-0.841410577297211
1743277954012669952,-0.00426118774339557,-0.116117365658283,-0.0181100480258465,0.23597600021051907,9.96109501326736,-0.8345119819247337
1743277954017669888,-0.00213059387169778,-0.0703096017241478,-0.00852237548679113,0.3941123734564982,9.948930303909606,-0.7919368072466232
1743277954022680064,0.0149141578003764,0.00106529693584889,0.0191753450781107,0.5525729975274059,9.93674065141598,-0.7492743342750998
1743277954027680000,-0.003195890923962,0.0585913322865963,0.00426118774339557,0.7043902021256604,9.92384681200625,-0.7093726611713784
1743277954032679936,-0.0149141578003764,0.104399099946022,-0.0436771735548973,0.5462438896443955,9.875186736298696,-0.8006109098041951
1743277954037679872,-0.00639178184792399,0.158729240298271,0.0149141578003764,0.38810511799435715,9.82652898083126,-0.8918448079578667
1743277954042680064,0.00213059387169778,0.216255277395248,0.003195890923962,0.22995880551309228,9.777868905123706,-0.9830830565906834
1743277954047689984,-0.003195890923962,0.254605978727341,-0.0138488598167896,0.08760445163722017,9.88924747333884,-0.9570361412180222
1743277954052689920,-0.00852237548679113,0.30893611907959,-0.0223712362349033,-0.05220302661366244,10.022976226363735,-0.9144860214308733
1743277954057689856,0.00213059387169778,0.334503263235092,0.003195890923962,-0.1920038384770641,10.156698602850723,-0.8719379305451066
1743277954062690048,-0.0607219263911247,0.324915587902069,-0.00639178184792399,-0.14933455295590214,10.223707266267834,-0.6601808598026561
1743277954067689984,-0.0692443028092384,0.324915587902069,0.0223712362349033,-0.039853870905972755,10.266283333122557,-0.38647916534164145
1743277954072689920,-0.142749801278114,0.307870805263519,0.0170447509735823,0.06963203171913432,10.308861430212696,-0.11276441944319127
1743277954077699840,-0.2151899933815,0.272716015577316,0.0756360813975334,-0.007271581125908158,10.09673788914358,-0.10765533533777559
1743277954082700032,-0.32171967625618,0.203471720218658,0.0735054910182953,-0.21407516693914302,9.7074604574649,-0.29012908404090576
1743277954087699968,-0.318523794412613,0.116117365658283,0.0894849449396133,-0.4208688918146603,9.318201587555805,-0.4725941319168042
1743277954092699904,-0.270585417747498,0.0181100480258465,0.0639178156852722,-0.48932774987016503,9.067267758247402,-0.6442184443243043
1743277954097700096,-0.210928797721863,-0.0479383654892445,0.0596566312015057,-0.38592438277683305,8.988194756046905,-0.8023647710246595
1743277954102710016,-0.126770332455635,-0.0639178156852722,0.0138488598167896,-0.28231886338277495,8.908967167107413,-0.9608202718330978
1743277954107709952,0.0713749006390572,-0.037285391241312,-0.00106529693584889,-0.09934638857772778,8.933488765615413,-1.0264837456687024
1743277954112709888,0.13316211104393,0.0223712362349033,-0.0873543471097946,0.26583372052300563,9.195201158404156,-0.8804116811607672
1743277954117710080,0.307870805263519,0.0798972696065903,-0.025567127391696,0.6310138296237391,9.456913551192898,-0.7343396166528321
1743277954122710016,0.344090908765793,0.166186332702637,-0.159794539213181,0.9133796995762142,9.700852806199963,-0.5774516096568527
1743277954127720192,0.610415160655975,0.285499602556229,-0.139553904533386,0.7671061248693704,9.853221062132487,-0.36413600124738743
1743277954132719872,0.445294111967087,0.418661713600159,-0.252475380897522,0.621131863178249,10.005277533778102,-0.15125689094211958
1743277954137720064,-0.00852237548679113,0.458077698945999,-0.0298283156007528,0.47600336653880515,10.151737875651685,0.05895245114351688
1743277954142720000,-0.0905502364039421,0.466600060462952,0.167251631617546,0.372606517134393,10.024012218914187,0.13802063658165675
1743277954147720192,0.0553954392671585,0.405878126621246,-0.0735054910182953,0.26920473726174365,9.896280471591751,0.21709259237816952
1743277954152730112,0.051134254783392,0.364331543445587,-0.0649831146001816,0.16560080819136497,9.768299010286851,0.2963191328679713
1743277954157730048,0.0223712362349033,0.32171967625618,0.0649831146001816,0.06753800320181277,9.720671134328166,0.14575671829821338
1743277954162729984,-0.00106529693584889,0.248214185237885,-0.0351548008620739,-0.029778161779993984,9.68417766606453,-0.03671109696701197
1743277954167730176,0.025567127391696,0.161925137042999,-0.0223712362349033,-0.12709896727322045,9.647682457613573,-0.21918761319143165
1743277954172729856,0.00852237548679113,0.128900930285454,0.0202406421303749,-0.304775454661266,9.481719514737623,-0.6695231373416513
1743277954177730048,0.0191753450781107,0.0724401921033859,-0.0426118783652782,-0.5115821746288405,9.268830242649335,-1.2169526575767318
1743277954182739968,-0.00532648479565978,0.00426118774339557,-0.0287630185484886,-0.718793199170069,9.055524774673405,-1.765452395737124
1743277954187740160,0.00852237548679113,-0.0181100480258465,-0.0276977196335793,-0.5907067052180986,9.253149235202464,-2.0211974516209263
1743277954192739840,0.0106529695913196,-0.0276977196335793,-0.139553904533386,-0.23185878404802962,9.733640240418826,-2.075936975462491
1743277954197740032,-0.0319589078426361,-0.0213059391826391,-0.317458480596542,0.1270062487486271,10.214154157799852,-2.1306791095526774
1743277954202739968,-0.193884029984474,-0.0308936107903719,-0.485775411128998,0.42863474578270133,10.381290880922954,-2.248090548677603
1743277954207750144,-0.272716015577316,-0.0351548008620739,-0.590174555778503,0.6602345415321451,10.161880799064802,-2.4431219436265548
1743277954212750080,0.00213059387169778,0.00745707890018821,-0.450620591640472,0.8913604250698619,9.94291968615687,-2.637754254632288
1743277954217750016,0.0692443028092384,0.122509144246578,-0.403747528791428,0.9382179690935547,9.785375135388051,-2.7616618718462393
1743277954222749952,0.0585913322865963,0.259932458400726,-0.413335204124451,0.5672057295661206,9.76712852633369,-2.7251688812286545
1743277954227750144,-0.0767013803124428,0.483644813299179,-0.421857595443726,0.1961757983578165,9.748881047191636,-2.6886741504465275
1743277954232760064,-0.112921476364136,0.774470865726471,-0.487905979156494,-0.17159073755993076,9.766505023434899,-2.490525949339232
1743277954237760000,-0.0319589078426361,1.07062339782715,-0.464469462633133,-0.5182961112767839,9.96722942826658,-1.4686574774412666
1743277954242759936,-0.0468730665743351,1.31670701503754,-0.490036576986313,-0.8649849531715067,10.167944262031845,-0.4468377309138858
1743277954247760128,-0.0564607381820679,1.46371793746948,-0.533713757991791,-1.2117940768776037,10.368658377536558,0.5628282203554649
1743277954252759808,0.037285391241312,1.52230930328369,-0.528387248516083,-1.5636632545447764,10.568859455407027,0.975364490447892
1743277954257769984,0.303609609603882,1.50952577590942,-0.427184075117111,-1.916253922586261,10.769471035702198,1.3887466457920463
1743277954262810112,0.625329315662384,1.38808190822601,-0.243952989578247,-2.270941946367023,10.97127593699941,1.8045877698912225
1743277954267810048,0.950244903564453,1.17821836471558,-0.0916155353188515,-1.902671422020051,10.675284114552051,1.2781690737705993
1743277954272809984,1.16650009155273,0.939591944217682,0.0340895019471645,-1.4343373975954243,10.310348521937373,0.6212849814710224
1743277954277810176,1.34440469741821,0.681790053844452,0.0713749006390572,-0.9659810407105232,9.945395527406113,-0.03563043427962009
1743277954282820096,1.42004072666168,0.433575838804245,0.116117365658283,-0.393746222095544,9.87518765123822,-0.8057461759060778
1743277954287820032,1.4647833108902,0.232234731316566,0.110790878534317,0.2145088383054513,9.911683163029751,-1.6147253235790924
1743277954292819968,1.4509345293045,0.0926808342337608,0.0330242030322552,0.8227348955088306,9.948176934619502,-2.4236658970032194
1743277954297820160,1.38914716243744,0.0330242030322552,-0.0873543471097946,0.9160440033214576,10.398784942754228,-3.4486967423474395
1743277954302819840,1.11216998100281,0.0149141578003764,-0.155533358454704,0.6545107522346736,11.13472726144555,-4.622555175940931
1743277954307830016,0.932134807109833,0.0628525167703629,-0.289760768413544,0.3924412401304497,11.8721785935222,-5.798820548290064
1743277954312829952,0.597631573677063,0.151272162795067,-0.426118791103363,0.16101356732281927,12.917410649994931,-6.567606337204187
1743277954317830144,0.152337461709976,0.299348413944244,-0.537974953651428,-0.03362803418423996,14.34072772300964,-6.841321158937781
1743277954322830080,-0.350482672452927,0.508146643638611,-0.585913360118866,-0.2282603546689119,15.763976928530882,-7.1150229292303235
1743277954327830016,-0.841584622859955,0.788319706916809,-0.515603721141815,-0.43038935475689705,16.84857476250227,-7.0628377672062586
1743277954332829952,-1.28687870502472,1.11536586284637,-0.330242067575455,-0.64948696593035,17.165049090806693,-6.271651946445223
1743277954337840128,-1.6874303817749,1.42643260955811,-0.0767013803124428,-0.8690338259369754,17.48217233409453,-5.478843838225663
1743277954342840064,-2.07626366615295,1.71832394599915,0.230104148387909,-1.1052720431172534,17.56135764442971,-4.6614900438053
1743277954347840000,-2.45018315315247,1.96547281742096,0.577390968799591,-1.4276472059814056,16.44825060159955,-3.7126121594383186
1743277954352839936,-2.79107809066772,2.12526750564575,0.931069552898407,-1.7500069971517345,15.335196634634492,-2.7637795200591473
1743277954357840128,-3.0851001739502,2.19664216041565,1.26557278633118,-2.055230983060981,14.214318393867252,-1.8272292854372434
1743277954362850048,-3.30561637878418,2.17320585250854,1.53935408592224,-1.598154824000813,12.745580300628857,-1.437190954174637
1743277954367849984,-3.42173385620117,2.08478617668152,1.7598705291748,-1.141970499639235,11.27970796962445,-1.0479136552054569
1743277954372849920,-3.42386436462402,1.95695054531097,1.92073035240173,-0.6858079273434765,9.813905535259895,-0.6586549179995311
1743277954377850112,-3.31307363510132,1.82059240341187,2.0208683013916,-0.10115648627509122,8.642403157352478,-1.0883109950343441
1743277954382850048,-3.10001397132874,1.70767092704773,2.06667613983154,0.5009873325369749,7.511102607918671,-1.6296321455650609
1743277954387859968,-2.82197141647339,1.63629615306854,2.08052492141724,1.1043658175170312,6.377482382569284,-2.172063248385741
1743277954392859904,-2.48533773422241,1.6341655254364,2.04004383087158,1.2127396005816475,5.757912893498508,-2.681957100751571
1743277954397860096,-2.0933084487915,1.74708688259125,1.90581631660461,1.1458325183137537,5.319975972444989,-3.1807187247766233
1743277954402860032,-1.64907968044281,1.96866869926453,1.68956089019775,1.0789286263511368,4.88205993337321,-3.6794565665384673
1743277954407859968,-1.18034911155701,2.25736427307129,1.42962849140167,0.8386004214461306,5.28593130407774,-3.473701605394132
1743277954412859904,-0.754230260848999,2.56097364425659,1.14412891864777,0.4797470743319616,6.265175230202882,-2.786406107861824
1743277954417870080,-0.433575838804245,2.82516765594482,0.837323427200317,0.12015791614889237,7.24642704764572,-2.0977013448489057
1743277954422870016,-0.205602318048477,3.02650856971741,0.579521536827087,-0.20570292080778468,8.280647796838558,-1.4186581287742386
1743277954427869952,-0.025567127391696,3.16925835609436,0.420792311429977,-0.4915784517533766,9.381572971689664,-0.7495877800577562
1743277954432869888,0.172578096389771,3.27152705192566,0.382441610097885,-0.7774403514033866,10.48244565153911,-0.0805493343714434
1743277954437870080,0.3771151304245,3.32479166984558,0.431445270776749,-0.9003386860358255,11.396044087763586,0.3918259231061279
1743277954442880000,0.553954422473907,3.31946516036987,0.513473153114319,-0.6565610198822447,11.889693355366468,0.4222981260327425
1743277954447879936,0.697769522666931,3.28111457824707,0.620002806186676,-0.41325900614917943,12.382379427805796,0.452710872417217
1743277954452879872,0.806429803371429,3.1948254108429,0.741446673870087,-0.19520885492088502,12.805379490104949,0.3650005426807872
1743277954457880064,0.883131206035614,3.08829593658447,0.877804636955261,-0.10397198293913215,12.87836940667316,-0.316234725775652
1743277954462880000,0.892718851566315,2.99881100654602,0.99605268239975,-0.012739461370882138,12.95135584289059,-0.997437511146622
1743277954467889920,0.839453995227814,2.92850136756897,1.11110472679138,0.06365389474567744,13.01209162379913,-1.6816420669398986
1743277954472889856,0.742511928081512,2.90399956703186,1.21443843841553,-0.4715850292424062,12.568086192739981,-2.4297601758799106
1743277954477890048,0.628525197505951,2.91678309440613,1.29646635055542,-1.0068494760440887,12.124059589327057,-3.1779139587557834
1743277954482889984,0.432510554790497,3.00413727760315,1.28474807739258,-1.5420884000321724,11.680054158267911,-3.926032067695796
1743277954487889920,0.176839292049408,3.10960173606873,1.20804679393768,-1.7669054737432281,11.455482150728185,-3.7000234309436646
1743277954492899840,-0.140619203448296,3.24915552139282,1.12282288074493,-1.9497386723070638,11.260460112784584,-3.3404512825432233
1743277954497900032,-0.464469462633133,3.3887095451355,1.07168877124786,-2.1322151316551228,11.065818596592074,-2.9815807216402566
1743277954502899968,-0.806429803371429,3.50163102149963,1.04399108886719,-2.005068149157508,10.687358175820888,-2.4210345032915197
1743277954507899904,-1.14412891864777,3.55596113204956,1.01948916912079,-1.7680033313893233,10.243621569601874,-1.7888615738084925
1743277954512900096,-1.41471433639526,3.56022238731384,0.998183250427246,-1.530938513621138,9.799884963382862,-1.1566886443254651
1743277954517910016,-1.56279063224792,3.55596113204956,0.990726172924042,-1.3655769546403607,9.496013072282862,-0.7398106157905686
1743277954522910208,-1.59261894226074,3.58365893363953,0.991791486740112,-1.2500085164834795,9.28920638549316,-0.4721784066088175
1743277954527909888,-1.5425500869751,3.62414002418518,0.994987368583679,-1.1344455889330334,9.082409559789037,-0.20455895883318798
1743277954532910080,-1.42217147350311,3.67314386367798,1.01522791385651,-0.9915051171911091,8.99057002930696,0.008325824770058651
1743277954537910016,-1.26983392238617,3.7082986831665,1.06423163414001,-0.8151222154605462,9.039227350130407,0.15429786188592787
1743277954542910208,-1.11430060863495,3.74558401107788,1.12069237232208,-0.6387309029292714,9.087886991173244,0.3002768596635259
1743277954547919872,-0.9790078997612,3.80097961425781,1.1941978931427,-0.5013335762778195,9.093555649306015,0.553320962304804
1743277954552920064,-0.863955795764923,3.88726854324341,1.291139960289,-0.4526731687915098,9.002317173167766,1.0460075371519508
1743277954557920000,-0.76488322019577,3.97888422012329,1.40406143665314,-0.4040150815611359,8.91108304751951,1.5386706194101765
1743277954562920192,-0.679659485816956,4.06197690963745,1.52976644039154,-0.4032441451021237,8.765969341443256,2.0543029492371647
1743277954567919872,-0.622133433818817,4.11417675018311,1.64694905281067,-0.6465308534861266,8.346299911425838,2.686848423263487
1743277954572930048,-0.610415160655975,4.1237645149231,1.73856461048126,-0.8903164092527298,7.925769969964488,3.3206909005506526
1743277954577929984,-0.639178156852722,4.09074020385742,1.7747848033905,-1.1378817500703435,7.50837337691939,3.944412070572256
1743277954582930176,-0.679659485816956,4.02575731277466,1.7747848033905,-1.57582535109138,7.192080761436251,4.175548871050873
1743277954587929856,-0.705226540565491,3.9202926158905,1.721519947052,-2.013748069812158,6.875803227615113,4.406674650320236
1743277954592930048,-0.724401891231537,3.77860832214355,1.63203489780426,-2.4516916708331946,6.559510612131974,4.637811450798853
1743277954597939968,-0.771275043487549,3.59218144416809,1.4935462474823,-2.499756172155877,6.526284210204786,4.68206117248448
1743277954602940160,-0.849041640758514,3.36207699775696,1.31351113319397,-2.49367375494252,6.532366703252139,4.700308651626538
1743277954607939840,-0.969420194625854,3.12877726554871,1.09299468994141,-2.487591627754778,6.5384489062702595,4.7185552606809
1743277954612940032,-1.10897409915924,2.88908529281616,0.86715167760849,-2.239770379396465,6.750457017303911,4.714419598075623
1743277954617939968,-1.25385451316833,2.6536545753479,0.645569980144501,-1.9052460735277477,7.036323226463313,4.7022550075457055
1743277954622950144,-1.40406143665314,2.4416606426239,0.435706436634064,-1.5700358420878913,7.322775590169177,4.690065474123566
1743277954627950080,-1.56279063224792,2.2488420009613,0.264193624258041,-1.2210630465997503,7.6267036045583865,4.562289101430043
1743277954632950016,-1.71725869178772,2.06028437614441,0.143815100193024,-0.8621980138030939,7.942991423004815,4.355485551163993
1743277954637949952,-1.85361671447754,1.88344502449036,0.0916155353188515,-0.5033500926330252,8.259264160017977,4.148691861833966
1743277954642950144,-1.94736278057098,1.76839292049408,0.106529697775841,-0.27587929780999165,8.332022754122914,3.96109317369037
1743277954647949824,-1.9921053647995,1.7311075925827,0.177904590964317,-0.2090170251028717,8.107122304353684,3.7969767296257846
1743277954652960000,-1.98890936374664,1.75241351127625,0.298283129930496,-0.14201765460707183,7.881760707317271,3.6325237728963393
1743277954657959936,-1.95481991767883,1.80461311340332,0.426118791103363,-0.14772662381078916,7.591676734751961,3.602377048679104
1743277954662960128,-1.90581631660461,1.88983678817749,0.547562658786774,-0.31803805001287305,7.153733171648501,3.8760917945775564
1743277954667959808,-1.85361671447754,1.96440756320953,0.625329315662384,-0.4883413553191815,6.715810490843491,4.149793489038573
1743277954672960000,-1.79928648471832,2.03471708297729,0.662614703178406,-0.6182462970454928,6.3212305840978065,4.458986073873855
1743277954677969920,-1.7641316652298,2.07945966720581,0.628525197505951,-0.5390197387473513,6.150588737000944,4.952628462426885
1743277954682970112,-1.77691531181335,2.07200264930725,0.537974953651428,-0.4599477651772459,5.980279841683026,5.445307669238581
1743277954687970048,-1.8418984413147,2.03471708297729,0.387768059968948,-0.38416066990791997,5.814475385695865,5.933953256274675
1743277954692969984,-1.96866869926453,1.96653819084167,0.197079926729202,-0.46931637115972025,5.869218501712873,6.225915530563456
1743277954697969920,-2.13485503196716,1.86107385158539,-0.00958767253905535,-0.5544680119641978,5.923959007434437,6.517863883324758
1743277954702980096,-2.28080058097839,1.78330707550049,-0.208798199892044,-0.6397942520035518,5.978811755860023,6.810410861767656
1743277954707980032,-2.40117931365967,1.74921762943268,-0.332372665405273,-0.8958336406113142,5.98548889160156,6.920786044982186
1743277954712979968,-2.4459216594696,1.68210399150848,-0.403747528791428,-1.1756267093171138,5.98548889160156,7.005940492641145
1743277954717979904,-2.38733053207397,1.57983541488647,-0.421857595443726,-1.4554064367550943,5.98548889160156,7.091090879912555
1743277954722980096,-2.2488420009613,1.47224032878876,-0.412269920110703,-1.4584059845935815,6.1372805819388585,7.176246275512569
1743277954727990016,-2.0549578666687,1.34440469741821,-0.369658052921295,-1.3608949276300766,6.344491573237349,7.261568493096302
1743277954732989952,-1.85894322395325,1.2037855386734,-0.323850274085999,-1.2635741316162457,6.551298260027047,7.346724232265675
1743277954737989888,-1.7311075925827,1.0248156785965,-0.259932458400726,-1.076241537739876,6.509645474619683,7.291448150943427
1743277954742990080,-1.6437531709671,0.828801035881042,-0.186426967382431,-0.8268607541650965,6.296759431306281,7.139386734767563
1743277954747990016,-1.57877004146576,0.650896430015564,-0.129966229200363,-0.5774918617205655,6.083883538958133,6.987332569279101
1743277954752989952,-1.53402769565582,0.479383617639542,-0.129966229200363,-0.358290495721615,6.012570533978658,6.732162049807043
1743277954757999872,-1.508460521698,0.34728679060936,-0.198145225644112,-0.17592192051349437,6.11591271349119,6.349187965606014
1743277954763040000,-1.44667327404022,0.256736576557159,-0.357939779758453,0.0075488680411941456,6.21987948048757,5.963899232916264
1743277954768039936,-1.41791021823883,0.203471720218658,-0.570999205112457,0.12269397021492233,6.485014272653891,5.696783015417529
1743277954773040128,-1.49567699432373,0.174708694219589,-0.7638179063797,0.08619866519265215,7.1175995036201645,5.69070043011894
1743277954778050048,-1.67145085334778,0.174708694219589,-0.894849419593811,0.04963201230151337,7.751421430870513,5.684605953441501
1743277954783049984,-1.88557553291321,0.217320576310158,-0.931069552898407,-0.021782519489887256,8.26527939354794,5.6904957402039065
1743277954788049920,-2.02726006507874,0.307870805263519,-0.877804636955261,-0.2711514054177439,8.17404680325841,5.757399670081712
1743277954793050112,-2.03365182876587,0.419726997613907,-0.731858968734741,-0.5205321824755385,8.082809862552098,5.824306790266604
1743277954798050048,-1.93244862556458,0.574195027351379,-0.517734348773956,-0.7562905241059454,7.983678227173611,5.902512414232595
1743277954803059968,-1.77158880233765,0.775536119937897,-0.280173093080521,-0.32356457619485973,7.496099777794747,6.536364504806945
1743277954808059904,-1.59368419647217,0.958767235279083,-0.0607219263911247,0.1082759041346053,7.009519038196186,7.168919572449218
1743277954813060096,-1.43069386482239,1.07168877124786,0.123574443161488,0.5401369767334104,6.522915096044594,7.801504803415492
1743277954818060032,-1.29966235160828,1.12495362758636,0.251410067081451,0.4060212687307916,6.100655304329862,7.851978175885151
1743277954823059968,-1.16117370128632,1.14519417285919,0.316393196582794,0.19327075268567856,5.687311500071045,7.821585222353514
1743277954828059904,-0.991791486740112,1.13134527206421,0.332372665405273,-0.019469618856475912,5.273987405129616,7.7911937180376665
1743277954833070080,-0.827735722064972,1.03653395175934,0.325980871915817,-0.1389943338850602,5.056054184527708,7.448212993015901
1743277954838070016,-0.710553109645844,0.877804636955261,0.282303690910339,-0.2241459723198026,4.910079856483997,6.992043426416015
1743277954843069952,-0.675398290157318,0.646635234355927,0.165121033787727,-0.30930167120175467,4.764098567669315,6.535852107416786
1743277954848069888,-0.719075441360474,0.409074038267136,-0.0298283156007528,-0.26526615645502244,4.919560596642233,6.2842317654870135
1743277954853070080,-0.871412873268127,0.25354066491127,-0.268454819917679,-0.1314520843419138,5.284508207799485,6.174747497306634
1743277954858080000,-1.11962711811066,0.224777653813362,-0.518799602985382,0.002623592623218318,5.650169287012118,6.065049188739292
1743277954863079936,-1.41791021823883,0.260997772216797,-0.736120164394379,-0.05430094543885712,5.996045316039844,6.026410351879446
1743277954868079872,-1.68849563598633,0.320654392242432,-0.908698320388794,-0.346249442754012,6.318404993462882,6.075068562336056
1743277954873080064,-1.87066149711609,0.382441610097885,-1.02161979675293,-0.6382118616035388,6.6407800425743195,6.123729093054477
1743277954878080000,-1.94629752635956,0.45488178730011,-1.08021104335785,-0.8395616467080235,6.911368338633429,6.25558870788086
1743277954883089920,-1.94416701793671,0.516669034957886,-1.04079508781433,-0.833466991429406,7.063734283680136,6.578604620799525
1743277954888089856,-1.87172675132751,0.582717418670654,-0.933200120925903,-0.8273848073688803,7.215788449168595,6.900959560830805
1743277954893090048,-1.73749923706055,0.650896430015564,-0.742511928081512,-0.8400105619045316,7.298911758910038,7.209512833307564
1743277954898089984,-1.5425500869751,0.719075441360474,-0.528387248516083,-0.9494215372447977,7.025384225830305,7.446569826554657
1743277954903089920,-1.2815523147583,0.793646216392517,-0.288695484399796,-1.058837729836284,6.751843649618004,7.683638123840337
1743277954908099840,-0.980073153972626,0.852237582206726,-0.0607219263911247,-1.1666102686964537,6.479077282089895,7.920188528162107
1743277954913100032,-0.696704208850861,0.904437124729156,0.137423306703568,-1.1726928539950432,6.278353332269073,8.102665177098029
1743277954918100224,-0.457012385129929,0.938526570796967,0.306805521249771,-1.1787754392936325,6.077629382448251,8.285141826033952
1743277954923099904,-0.279107809066772,0.949179589748383,0.444228827953339,-1.1848577345585913,5.876915003672147,8.467609774004352
1743277954928100096,-0.150206863880157,0.91935122013092,0.563542068004608,-1.0155054348996029,5.638980063891639,8.49059772491455
1743277954933100032,-0.0862890481948853,0.838388681411743,0.655157625675201,-0.8208760568178425,5.395693308113648,8.49059772491455
1743277954938110208,-0.0777666792273521,0.698834776878357,0.716944873332977,-0.6258476008066788,5.151907704855878,8.49059772491455
1743277954943109888,-0.150206863880157,0.546497344970703,0.754230260848999,-0.34217044320718554,4.815120371666582,8.401552043758235
1743277954948110080,-0.262063026428223,0.411204636096954,0.769144415855408,-0.025877818244655848,4.444084791836727,8.27990094446762
1743277954953110016,-0.392029255628586,0.294021964073181,0.767013847827911,0.290399725055421,4.073066903957082,8.158255645820685
1743277954958110208,-0.506016075611115,0.20027582347393,0.753164947032928,0.48866106211673543,3.837946168888398,7.839891564136404
1743277954963119872,-0.528387248516083,0.128900930285454,0.723336637020111,0.6044536884454594,3.697776091056296,7.382815329093987
1743277954968120064,-0.402682244777679,0.0788319706916809,0.679659485816956,0.7200203833184429,3.5578795093071474,6.926630928898414
1743277954973120000,-0.108660288155079,0.052199549973011,0.642374038696289,0.7514896230598624,3.7652103122235916,6.513867944966247
1743277954978120192,0.303609609603882,0.0735054910182953,0.611480414867401,0.6784990355288809,4.403878128488454,6.15499753573357
1743277954983119872,0.7638179063797,0.162990435957909,0.598696827888489,0.6055119283806732,5.042515491395685,5.796144238383843
1743277954988130048,1.19845914840698,0.313197284936905,0.612545788288116,0.5323754926849521,5.7323882394340675,5.566001893731494
1743277954993129984,1.54681122303009,0.484710097312927,0.65302699804306,0.4593894640557953,6.535234488003212,5.632905823609301
1743277954998130176,1.79609072208405,0.647700548171997,0.721206068992615,0.3863999550952938,7.338119020213983,5.699812943794192
1743277955003129856,1.96866869926453,0.78938502073288,0.823474526405334,0.3124406945033696,8.05339204736022,5.763797823253933
1743277955008130048,2.08372092247009,0.895914733409882,0.96089780330658,0.2333675430024336,8.308859113198048,5.812458050631774
1743277955013139968,2.16894459724426,0.977942585945129,1.12069237232208,0.15413980447062126,8.564825613982443,5.861213408150874
1743277955018140160,2.22540521621704,1.05890512466431,1.27835631370544,0.07243554417402415,8.812728111302963,5.909654368328761
1743277955023139840,2.26056003570557,1.14412891864777,1.40938782691956,-0.15260469022848172,8.648509539778264,5.946147586437482
1743277955028140032,2.24671125411987,1.21763443946838,1.52870106697083,-0.3776556556516544,8.484283137507697,5.982642544721594
1743277955033139968,2.18811988830566,1.28474807739258,1.60966372489929,-0.6026958900541602,8.320064565982998,6.019135762830316
1743277955038140160,2.06774139404297,1.33375179767609,1.65760207176208,-0.7480098628479269,8.028252015705558,6.151318752411649
1743277955043149824,1.89409792423248,1.34973120689392,1.66718971729279,-0.8820875519258615,7.717435376791018,6.297585128902556
1743277955048150016,1.67571210861206,1.33801305294037,1.65760207176208,-1.0159036322257922,7.407225194936178,6.443566114376658
1743277955053149952,1.42323672771454,1.32629466056824,1.60327184200287,-1.1586162959850421,7.306287358923949,6.460424483286167
1743277955058150144,1.17608785629272,1.31244587898254,1.52870106697083,-1.3045952949475448,7.281957538402533,6.430012169717395
1743277955063149824,0.985399723052979,1.29007470607758,1.43602025508881,-1.450567333248262,7.25762887799081,6.39960130628755
1743277955068160000,0.904437124729156,1.21443843841553,1.37423312664032,-1.3097547472475164,7.459329876824653,6.379893573084702
1743277955073159936,0.941722512245178,1.11323523521423,1.34333944320679,-0.9691481745506657,7.818183477500496,6.3677291342178455
1743277955078160128,1.01203215122223,1.02907681465149,1.34120881557465,-0.6285253600640722,8.177054190073754,6.355564115290961
1743277955083159808,1.05144810676575,0.944918394088745,1.37423312664032,-0.19840069620500564,8.397561420036029,6.158938141918079
1743277955088160000,1.07701528072357,0.85862934589386,1.44667327404022,0.34294631456662933,8.446221495743579,5.733159597741504
1743277955093169920,1.14625954627991,0.773405611515045,1.55426824092865,0.8853516520329829,8.494976701295874,5.306548661789645
1743277955098170112,1.25811564922333,0.725467264652252,1.69488739967346,1.312076592404484,8.42337048284406,4.8695872347869384
1743277955103169792,1.42217147350311,0.760622024536133,1.81739664077759,1.4763997604740071,8.07646605907435,4.407047901922375
1743277955108169984,1.59048843383789,0.894849419593811,1.88770627975464,1.6407307642770705,7.7295450932025105,3.944486512916815
1743277955113169920,1.75241351127625,1.06103575229645,1.88344502449036,1.7360706856732955,7.427996577399909,3.542093313365537
1743277955118180096,1.87918388843536,1.21124267578125,1.85468196868896,1.4739972178409197,7.360954599500255,3.4506723446086216
1743277955123180032,1.97612583637238,1.34440469741821,1.80461311340332,1.2124600191204116,7.294049806574889,3.3594384464549494
1743277955128179968,2.06348013877869,1.50206863880157,1.70234453678131,0.9462878699075156,7.242968114806393,3.2783053138837617
1743277955133179904,2.14018154144287,1.67358160018921,1.56705176830292,0.45394588647951195,7.966285129389682,3.691629484607297
1743277955138180096,2.22327470779419,1.83870244026184,1.42962849140167,-0.03841957422584741,8.689636635271173,4.104973364651833
1743277955143179776,2.34897971153259,1.95695054531097,1.34546995162964,-0.5307615576538508,9.412953649854462,4.518297535375369
1743277955148189952,2.47788071632385,2.04323959350586,1.3199028968811,-0.7366727992327731,9.946353009057571,4.687609178648852
1743277955153189888,2.58654093742371,2.08159017562866,1.36571073532104,-0.9008938424504185,10.451180786114062,4.821418916162646
1743277955158190080,2.67176461219788,2.09117794036865,1.45839154720306,-1.0651227165317907,10.956032635831704,4.9552350343801495
1743277955163190016,2.72502946853638,2.08052492141724,1.58516180515289,-0.8108338787920131,11.046799048226116,4.893145892129582
1743277955168189952,2.75059676170349,2.04110908508301,1.71299755573273,-0.403309171775146,10.98597472442457,4.759331803427786
1743277955173199872,2.7026584148407,1.96227705478668,1.84722483158112,0.005012240991658645,10.925031489824061,4.625256109841536
1743277955178200064,2.54073309898376,1.85255146026611,2.01873779296875,0.38383205665830433,10.408458512325595,4.573977856892495
1743277955183200000,2.21581768989563,1.80674362182617,2.08798217773438,0.7426854061422082,9.575188610918037,4.580060152157453
1743277955188199936,1.69275689125061,1.78224170207977,2.01660704612732,1.1015558675115484,8.741878975120065,4.586142737456043
1743277955193200128,1.06742751598358,1.7311075925827,1.85574722290039,1.4388087522445692,8.177088188133295,4.65737850825648
1743277955198210048,0.461273580789566,1.63096964359283,1.60859847068787,1.7498186737135701,7.945355190678697,4.809834315589289
1743277955203210240,-0.025567127391696,1.48821985721588,1.38169014453888,2.0602217609951525,7.714074344411253,4.961992655254433
1743277955208209920,-0.369658052921295,1.34014356136322,1.18461012840271,2.2719108282852623,7.562877383676016,4.96522400589416
1743277955213210112,-0.576325654983521,1.24852800369263,0.991791486740112,2.259745733523229,7.593290158498672,4.630683786185546
1743277955218210048,-0.6359823346138,1.19526314735413,0.842649877071381,2.2475812188248403,7.623701483160407,4.296159518232594
1743277955223220224,-0.555019736289978,1.18354487419128,0.760622024536133,2.1875341944720037,7.699039609462903,3.960985076086508
1743277955228219904,-0.331307351589203,1.21869969367981,0.741446673870087,1.8836193786598368,8.002954501057173,3.626678755958493
1743277955233220096,0.0138488598167896,1.29859697818756,0.749969065189362,1.5796900707006185,8.306883884802108,3.2923564944676382
1743277955238220032,0.439967632293701,1.40299618244171,0.800038039684296,1.2810201103326313,8.614301286171992,2.959030333538592
1743277955243219968,0.903371810913086,1.50206863880157,0.870347619056702,1.268855015570601,9.113070550591065,2.679233002341554
1743277955248219904,1.35292708873749,1.59155368804932,0.970485508441925,1.2566905008722158,9.611816032382615,2.399449012615582
1743277955253230080,1.73430335521698,1.69595277309418,1.07594990730286,1.244501043437097,10.111584167157668,2.11909133963377
1743277955258230016,2.00488877296448,1.81846189498901,1.17608785629272,1.2589672261225036,10.088222209635685,2.0311556544606155
1743277955263230208,2.13698577880859,1.94416701793671,1.24000561237335,1.2772032519055103,9.990963102312152,1.9703688639571537
1743277955268250112,2.1273980140686,2.03365182876587,1.2474627494812,1.295511449638736,9.893319076721031,1.9093415001363265
1743277955273250048,1.9867787361145,2.10715746879578,1.20165491104126,1.175350596343014,9.644216550406274,1.9556793919034157
1743277955278249984,1.73004221916199,2.14763855934143,1.10258233547211,1.0050498976305722,9.340108219429354,2.0408297412596337
1743277955283250176,1.39660429954529,2.17746686935425,0.977942585945129,0.8347410781466502,9.03598538707763,2.125984151001592
1743277955288249856,0.971550822257996,2.21262168884277,0.829866290092468,0.6859702435414909,8.767760016947328,2.290083686959104
1743277955293260032,0.531583189964294,2.24138474464417,0.678594172000885,0.551886145266522,8.523970868244913,2.509493996778296
1743277955298259968,0.144880384206772,2.26482152938843,0.561411440372467,0.4180764172316702,8.280680574277161,2.7284553371808027
1743277955303260160,-0.152337461709976,2.29251909255981,0.472991853952408,0.33331994464794296,8.0619598699707,2.974596808689075
1743277955308259840,-0.34835210442543,2.29571485519409,0.410139322280884,0.30900677150810674,7.873532512899595,3.2541983755793003
1743277955313260032,-0.451685905456543,2.28932309150696,0.362200945615768,0.28469243899708463,7.685096170689151,3.5338132752417777
1743277955318269952,-0.475122451782227,2.28719258308411,0.312132000923157,0.26587260782783745,7.627529907990262,3.762259593195671
1743277955323270144,-0.411204636096954,2.28080058097839,0.278042495250702,0.2597900509674281,7.870832106571493,3.871745597724253
1743277955328270080,-0.249279484152794,2.26695203781128,0.267389535903931,0.2537077841392931,8.11412270386536,3.981226381672798
1743277955333270016,0.0,2.26908254623413,0.286564886569977,0.21939860091936578,8.36326424348541,4.071245443395174
1743277955338269952,0.294021964073181,2.27973532676697,0.327046155929565,0.03693356252226454,8.643043762389851,4.059081037358933
1743277955343280128,0.589109182357788,2.28612732887268,0.389898657798767,-0.14590561142636385,8.923396955382934,4.046891688808764
1743277955348280064,0.844780445098877,2.28932309150696,0.448490023612976,-0.32673056893565755,9.197928140163928,4.035930043468518
1743277955353280000,1.01522791385651,2.29678010940552,0.511342525482178,-0.41796882704786725,9.18576327290733,4.090673007815239
1743277955358279936,1.10471296310425,2.29784536361694,0.569933831691742,-0.5092027346804797,9.17359898570353,4.145413361873748
1743277955363280128,1.13454127311707,2.27547430992126,0.605088651180267,-0.6004409927926895,9.16143411844693,4.200156326220468
1743277955368279808,1.12814950942993,2.23712348937988,0.620002806186676,-0.5428720464750976,9.016463246955434,3.9626762588360553
1743277955373289984,1.1068434715271,2.16255283355713,0.608284592628479,-0.46369216418646453,8.852012706868587,3.682501306801516
1743277955378289920,1.06636226177216,2.08691668510437,0.56673800945282,-0.3846743041181804,8.687898674501533,3.402899664129187
1743277955383290112,1.01203215122223,2.01980304718018,0.52306079864502,-0.33225566392229,8.43933686518845,3.1986333087855563
1743277955388290048,0.956636607646942,1.99743175506592,0.487905979156494,-0.28967984825952153,8.159552951294007,3.022247807743171
1743277955393289984,0.922547161579132,2.0208683013916,0.439967632293701,-0.24710200237331775,7.879755695932114,2.8458538957761257
1743277955398299904,0.88419646024704,2.06561064720154,0.372853934764862,-0.3331907395699796,7.7138556773001525,3.019600789746645
1743277955403300096,0.845845818519592,2.10502672195435,0.271650731563568,-0.5095846941942933,7.628699938130779,3.4392968244597766
1743277955408300032,0.809625685214996,2.12633275985718,0.154468059539795,-0.6859702378919132,7.543548259410537,3.8589728469645013
1743277955413299968,0.776601493358612,2.10183095932007,0.0330242030322552,-0.7840416431427,7.552918882146532,4.2354541884222945
1743277955418299904,0.733989596366882,2.03791308403015,-0.0852237567305565,-0.7840416431427,7.6806443872232695,4.557808976792817
1743277955423310080,0.671137094497681,1.9484281539917,-0.18749226629734,-0.7840416431427,7.808631787141373,4.880824737739751
1743277955428310016,0.563542068004608,1.82698428630829,-0.250344783067703,-0.7693568251270863,7.881265186123003,5.10583209991455
1743277955433309952,0.457012385129929,1.68956089019775,-0.297217845916748,-0.7207274230390632,7.826556919306803,5.10583209991455
1743277955438309888,0.409074038267136,1.5521377325058,-0.329176753759384,-0.6721003397285572,7.771851261124345,5.10583209991455
1743277955443310080,0.462338894605637,1.43815088272095,-0.337699145078659,-0.650986347931081,7.700056267102871,5.075465068540878
1743277955448320000,0.608284592628479,1.35505771636963,-0.357939779758453,-0.7789676572714779,7.53550895621636,4.880445988389607
1743277955453319936,0.827735722064972,1.26876866817474,-0.390963971614838,-0.9066992529259206,7.371282705613785,4.685807424218263
1743277955458319872,1.05038273334503,1.16330432891846,-0.451685905456543,-1.0341698470962377,7.210208486468545,4.4876089648958635
1743277955463320064,1.2570503950119,1.04399108886719,-0.536909639835358,-1.1436557378721053,7.271034036113852,4.037500231195221
1743277955468320000,1.42643260955811,0.908698320388794,-0.667941153049469,-1.2531364080733602,7.331856685437317,3.58741295986029
1743277955473329920,1.55533349514008,0.776601493358612,-0.825605094432831,-1.3628415629829578,7.3928040485999365,3.1364028067997665
1743277955478329856,1.62777376174927,0.658353507518768,-1.00457501411438,-1.3556386592526135,7.681686314858864,2.8560409620785028
1743277955483330048,1.64694905281067,0.564607381820679,-1.17076134681702,-1.3313088387311933,8.004056474684656,2.600577694935624
1743277955488329984,1.61179423332214,0.490036576986313,-1.33268642425537,-1.3069801783194683,8.326411263055181,2.3451266089517744
1743277955493329920,1.52976644039154,0.423988193273544,-1.45199978351593,-1.247226762504744,8.648785092548827,2.0852326054310133
1743277955498330112,1.44986915588379,0.381376326084137,-1.53189694881439,-1.1742361939325496,8.971160293330552,1.823682916377022
1743277955503340032,1.42430198192596,0.365396857261658,-1.58622717857361,-1.1011029297036956,9.294165733633164,1.561621900923488
1743277955508339968,1.49461162090302,0.36113566160202,-1.59688007831573,-0.8749828480984689,9.627088147790197,1.0437292558613473
1743277955513339904,1.66718971729279,0.368592739105225,-1.53828883171082,-0.540660589567993,9.9674891060874,0.3446918930265792
1743277955518340096,1.94097101688385,0.426118791103363,-1.42217147350311,-0.2063383310375171,10.307890064384605,-0.35434546980818893
1743277955523340032,2.25523352622986,0.540105521678925,-1.28261756896973,-0.053912594184424296,10.450339148410348,-0.8394601037339059
1743277955528350208,2.51623129844666,0.729728400707245,-1.15371656417847,-0.1331441120363524,10.340633955507236,-1.052775722829045
1743277955533349888,2.66963410377502,0.961963176727295,-1.07914578914642,-0.21221350200840836,10.23115324739021,-1.2656548437981212
1743277955538350080,2.71331143379211,1.19206726551056,-1.06210112571716,-0.41454802311252326,10.134356502044962,-1.3099646260444198
1743277955543350016,2.63874053955078,1.39980018138885,-1.07488465309143,-0.907203652377449,10.06745257216715,-0.9571988699772823
1743277955548350208,2.48640298843384,1.55639886856079,-1.0972558259964,-1.3998827738759003,10.000545451982253,-0.6044162923109809
1743277955553359872,2.30104160308838,1.6778427362442,-1.13454127311707,-1.8830483216483815,9.952475841007507,-0.2244316835678697
1743277955558360064,2.15509581565857,1.7641316652298,-1.16756546497345,-2.3085557793857574,10.007183956249959,0.29833466360577976
1743277955563360000,2.04110908508301,1.81952714920044,-1.18461012840271,-2.734042947810824,10.061889462865897,0.8210760839080212
1743277955568360192,1.95481991767883,1.83124554157257,-1.17289197444916,-3.157055944141955,10.115440695916476,1.339825921740349
1743277955573359872,1.89090204238892,1.81420075893402,-1.14412891864777,-3.3334414451843406,10.054617743266904,1.461471068724225
1743277955578370048,1.84509432315826,1.7651971578598,-1.09832108020782,-3.510188615987101,9.99367007615622,1.5833656430754321
1743277955583369984,1.83124554157257,1.66718971729279,-1.03546869754791,-3.686574117029487,9.93284712350665,1.705010790059308
1743277955588370176,1.84083318710327,1.5713130235672,-0.982203781604767,-3.5568428738505316,10.046174346131362,1.552225374312897
1743277955593369856,1.88344502449036,1.46584856510162,-0.907633006572723,-3.3805723306956645,10.185975660051207,1.3577199513031548
1743277955598370048,1.98251760005951,1.35186183452606,-0.804299235343933,-3.2042933820978927,10.325783640382475,1.1632052533221184
1743277955603369984,2.10396146774292,1.24959325790405,-0.688181817531586,-3.058679415082051,10.584217464927084,0.9071289538443587
1743277955608380160,2.24244999885559,1.17608785629272,-0.550758540630341,-2.9245953073087043,10.88895397679212,0.6267712761133557
1743277955613379840,2.39478731155396,1.13773715496063,-0.418661713600159,-2.790785569794911,11.193066920083336,0.3469872816479106
1743277955618380032,2.54073309898376,1.11856174468994,-0.297217845916748,-2.7628074801699487,11.666530757529987,0.038969252853195496
1743277955623379968,2.63341403007507,1.10577821731567,-0.181100472807884,-2.811464800993396,12.262583316769112,-0.2894678285840232
1743277955628380160,2.63660979270935,1.09512531757355,-0.051134254783392,-2.8601244420362333,12.858664298713839,-0.6179205715100331
1743277955633389824,2.55884313583374,1.09086406230927,0.0948114320635796,-2.8662564586630497,13.242798922178858,-0.7685333945610386
1743277955638390016,2.39904880523682,1.0876681804657,0.267389535903931,-2.8175960796149186,13.35228454753173,-0.6894602406902545
1743277955643389952,2.15189981460571,1.06423163414001,0.451685905456543,-2.7689380208213676,13.461764952322646,-0.6103908572349706
1743277955648390144,1.78650295734406,1.01096677780151,0.625329315662384,-2.7006064475653893,13.294062146347187,-0.49555185386014006
1743277955653389824,1.27409517765045,0.942787766456604,0.777666747570038,-2.5850452726945146,12.46080518600894,-0.29484029882695223
1743277955658400000,0.680724740028381,0.879935264587402,0.899110615253448,-2.469247145340714,11.62583967341784,-0.09371719466084616
1743277955663399936,0.178969889879227,0.836258053779602,0.998183250427246,-2.299150118744255,10.786110478333843,0.08111352887791437
1743277955668400128,-0.139553904533386,0.795776844024658,1.08660292625427,-1.824711176560763,9.910223352126929,0.11152627763223716
1743277955673399808,-0.255671262741089,0.757426142692566,1.17395722866058,-1.3502948568711768,9.034377990516914,0.14193757622688252
1743277955678400000,-0.192818760871887,0.731858968734741,1.27409517765045,-0.8769766390156402,8.158149896348197,0.17152200261289255
1743277955683409920,0.0223712362349033,0.723336637020111,1.35399234294891,-0.5417874382922511,7.23790304201751,0.09838981550115393
1743277955688410112,0.349417388439178,0.733989596366882,1.36890661716461,-0.20725224971513612,6.319451748579009,0.02540032194443273
1743277955693409792,0.731858968734741,0.742511928081512,1.27835631370544,0.1272669873462161,5.401044249308612,-0.04758569128167828
1743277955698409984,1.07914578914642,0.724401891231537,1.06955814361572,0.16157216229934382,5.841536740919413,-0.020498007686959717
1743277955703409920,1.38169014453888,0.672202348709106,0.782993257045746,0.14940764760095626,6.4923385426935,0.022077813900146806
1743277955708410112,1.62351250648499,0.597631573677063,0.439967632293701,0.13724255283892373,7.143171377885249,0.06465566571097117
1743277955713420032,1.79289472103119,0.510277271270752,0.124639742076397,-0.4646414659677489,7.799377409381489,-0.7552502774499648
1743277955718419968,1.84935557842255,0.343025594949722,-0.0628525167703629,-1.291341666188449,8.455874640717278,-1.9041204820227273
1743277955723419904,1.99743175506592,0.338764429092407,-0.2151899933815,-2.118002447173968,9.11234056854213,-3.0529359054489817
1743277955728420096,1.97079944610596,0.357939779758453,-0.352613270282745,-2.3192026907023404,9.740948146355205,-3.4322776353032878
1743277955733419776,1.83976793289185,0.364331543445587,-0.388833373785019,-2.063751642633677,10.349165111630576,-3.249812606384983
1743277955738429952,1.70127928256989,0.42931467294693,-0.349417388439178,-1.8077768048045368,10.958629195760883,-3.0669734419345867
1743277955743429888,1.51485228538513,0.518799602985382,-0.247148886322975,-1.5844481092334595,11.148457183419488,-2.9033017681374997
1743277955748430080,1.29007470607758,0.570999205112457,-0.122509144246578,-1.40266638242247,10.797012279909238,-2.763935797728117
1743277955753430016,1.06742751598358,0.597631573677063,0.00852237548679113,-1.2208933234412922,10.445584134214336,-2.6245764726539624
1743277955758429952,0.937461316585541,0.608284592628479,0.137423306703568,-0.9708702514081141,10.071700276642732,-2.4850862768327513
1743277955763439872,0.90976357460022,0.638112843036652,0.248214185237885,-0.5445309318660827,9.6392703221699,-2.3450033060273117
1743277955768499968,0.980073153972626,0.657288193702698,0.317458480596542,-0.1139105674269223,9.202498164280433,-2.2035137056668375
1743277955773499904,1.0876681804657,0.64343935251236,0.318523794412613,0.19728457831338414,8.844713015045402,-2.13391701347627
1743277955778500096,1.15904307365417,0.614676356315613,0.269520133733749,-0.14941553474331395,8.911620438566274,-2.4684521593967625
1743277955783500032,1.20272028446198,0.613611042499542,0.194949328899384,-0.4960991162287238,8.978524671765596,-2.802971353803527
1743277955788499968,1.23361384868622,0.536909639835358,0.151272162795067,-0.8418247428156466,9.048258168821679,-3.1393337221984825
1743277955793509888,1.35612308979034,0.519864916801453,0.0990726128220558,-0.9454302194690407,9.822252147852284,-3.931611283228222
1743277955798510080,1.46584856510162,0.576325654983521,0.012783563695848,-1.0488335439051033,10.594735930664346,-4.722342973606354
1743277955803510016,1.54041934013367,0.686051189899445,-0.0191753450781107,-1.1522319377992798,11.367182879422295,-5.5130369598222515
1743277955808509952,1.63523089885712,0.860759973526001,0.0458077676594257,-1.0092074040078562,11.956147413238579,-5.291836152532694
1743277955813509888,1.66718971729279,1.02375030517578,0.168316930532455,-0.8267423940471477,12.515706754369004,-4.9086593339809665
1743277955818510080,1.56279063224792,1.14945530891418,0.320654392242432,-0.6442686832610153,13.075292778029642,-4.5254642436816575
1743277955823520000,1.34333944320679,1.19952440261841,0.444228827953339,-0.4746490686866954,12.944250627880608,-4.251101825260255
1743277955828519936,1.02801156044006,1.23041796684265,0.513473153114319,-0.3105247537477292,12.543057984867524,-4.020112165342146
